sim_time_s,json_timestamp_s,gyro_x_rad_s,gyro_y_rad_s,gyro_z_rad_s,accel_x_m_s2,accel_y_m_s2,accel_z_m_s2,position_n_m,position_e_m,position_d_m,roll_rad,pitch_rad,yaw_rad,velocity_n_m_s,velocity_e_m_s,velocity_d_m_s,wind_n_m_s,wind_e_m_s,wind_d_m_s,airspeed_m_s,no_time_sync,no_lockstep
0,0.02,0,0,0,0.0672955656,-0,-9.8064191,0,0,0,0,0.00686229179,0,13,0,0,0,0,0,13,0,0
0.02,0.04,0,9.59118457e-05,0,0.0673182693,0,-9.83404004,0.259999976,0,-5.4791556e-06,0,0.00686278119,0,12.9999966,0,-0.000533834062,0,0,0,12.9999966,0,0
0.04,0.06,0,0.000463625485,0,-0.221822713,0,-9.82788957,0.519942043,0,-1.98982737e-05,0,0.00686808033,0,12.9942103,0,-0.000871919833,0,0,0,12.9942103,0,0
0.06,0.08,0,0.000954577207,0,-0.221648523,0,-9.81888146,0.7797684,0,-3.90648037e-05,0,0.00688216866,0,12.9884259,0,-0.00101648769,0,0,0,12.9884259,0,0
0.08,0.1,0,0.0014712154,0,-0.22128771,0,-9.81147461,1.0394791,0,-5.95578354e-05,0,0.00690644621,0,12.982645,0,-0.00101105574,0,0,0,12.9826451,0,0
0.1,0.12,0,0.00195951733,0,-0.22076649,0,-9.80551952,1.29907423,0,-7.87432008e-05,0,0.00694083471,0,12.9768686,0,-0.00089096218,0,0,0,12.9768687,0,0
0.12,0.14,0,0.00239077836,0,-0.220112093,0,-9.80081345,1.55855388,0,-9.46211543e-05,0,0.00698445009,0,12.9710974,0,-0.000684473806,0,0,0,12.9710974,0,0
0.14,0.16,0,0.00275113104,0,-0.219350556,0,-9.7971397,1.81791816,0,-0.000105694822,0,0.00703599499,0,12.9653319,0,-0.000413758456,0,0,0,12.9653319,0,0
0.16,0.18,0,0.00303545781,0,-0.218505641,0,-9.79428859,2.0771672,0,-0.000110857041,0,0.00709398949,0,12.9595722,0,-9.57533827e-05,0,0,0,12.9595722,0,0
0.18,0.2,0,0.00324381189,0,-0.217598382,0,-9.79206806,2.33630109,0,-0.000109293678,0,0.00715690736,0,12.9538187,0,0.000257053764,0,0,0,12.9538187,0,0
0.2,0.22,0,0.00337927963,0,-0.216646977,0,-9.79030837,2.59531999,0,-0.000100401786,0,0.00722325636,0,12.9480715,0,0.000635922312,0,0,0,12.9480715,0,0
0.22,0.24,0,0.00344667931,0,-0.21566687,0,-9.78886345,2.854224,0,-8.37210701e-05,0,0.00729162494,0,12.9423307,0,0.00103522887,0,0,0,12.9423307,0,0
0.24,0.26,0,0.00345175233,0,-0.214670933,0,-9.78761041,3.11301326,0,-5.88772645e-05,0,0.00736070815,0,12.9365964,0,0.00145190657,0,0,0,12.9365965,0,0
0.26,0.28,0,0.0034006497,0,-0.213669693,0,-9.78644808,3.3716879,0,-2.55360567e-05,0,0.00742932063,0,12.930869,0,0.00188494968,0,0,0,12.9308691,0,0
0.28,0.3,0,0.00329960032,0,-0.212671589,0,-9.78529498,3.63024806,0,1.66336969e-05,0,0.00749640126,0,12.9251485,0,0.00233497982,0,0,0,12.9251488,0,0
0.3,0.32,0,0.00315469451,0,-0.211683214,0,-9.78408715,3.88869389,0,6.79886659e-05,0,0.00756101237,0,12.9194354,0,0.00280386991,0,0,0,12.9194357,0,0
0.32,0.34,0,0.00297174319,0,-0.210709567,0,-9.78277596,4.14702553,0,0.00012893276,0,0.00762233551,0,12.91373,0,0.00329442155,0,0,0,12.9137304,0,0
0.34,0.36,0,0.00275618845,0,-0.209754277,0,-9.78132596,4.40524314,0,0.00019993289,0,0.00767966485,0,12.9080326,0,0.00381009142,0,0,0,12.9080332,0,0
0.36,0.38,0,0.00251305022,0,-0.208819818,0,-9.77971285,4.66334689,0,0.000281529705,0,0.00773239926,0,12.9023439,0,0.00435476225,0,0,0,12.9023446,0,0
0.38,0.4,0,0.00224689879,0,-0.207907704,0,-9.77792167,4.92133696,0,0.000374344166,0,0.00778003355,0,12.8966644,0,0.00493255372,0,0,0,12.8966654,0,0
0.4,0.42,0,0.00196184618,0,-0.207018661,0,-9.77594513,5.17921353,0,0.000479080689,0,0.00782214931,0,12.8909948,0,0.00554766901,0,0,0,12.890996,0,0
0.42,0.44,0,0.00166155147,0,-0.206152784,0,-9.77378211,5.43697682,0,0.000596527546,0,0.00785840588,0,12.8853357,0,0.00620427256,0,0,0,12.8853372,0,0
0.44,0.46,0,0.00134923609,0,-0.205309673,0,-9.77143639,5.69462704,0,0.000727555098,0,0.00788853133,0,12.879688,0,0.00690639513,0,0,0,12.8796899,0,0
0.46,0.48,0,0.00102770628,0,-0.204488552,0,-9.76891548,5.95216442,0,0.000873112373,0,0.00791231398,0,12.8740525,0,0.00765786231,0,0,0,12.8740548,0,0
0.48,0.5,0,0.0006993805,0,-0.203688369,0,-9.76622966,6.20958923,0,0.00103422241,0,0.00792959435,0,12.8684301,0,0.00846224302,0,0,0,12.8684328,0,0
0.5,0.52,0,0.00036631978,0,-0.202907883,0,-9.76339119,6.46690172,0,0.00121197677,0,0.00794025771,0,12.8628216,0,0.00932281477,0,0,0,12.862825,0,0
0.52,0.54,0,3.02597966e-05,0,-0.202145735,0,-9.76041357,6.72410219,0,0.00140752945,0,0.00794422721,0,12.8572281,0,0.0102425428,0,0,0,12.8572322,0,0
0.54,0.56,0,-0.000307356592,0,-0.201400509,0,-9.757311,6.98119095,0,0.00162209056,0,0.00794145778,0,12.8516505,0,0.0112240708,0,0,0,12.8516554,0,0
0.56,0.58,0,-0.00064534718,0,-0.200670779,0,-9.75409793,7.23816832,0,0.00185691983,0,0.00793193051,0,12.8460899,0,0.0122697202,0,0,0,12.8460958,0,0
0.58,0.6,0,-0.000982759284,0,-0.199955145,0,-9.75078868,7.49503467,0,0.00211332028,0,0.00791564779,0,12.8405473,0,0.0133814971,0,0,0,12.8405543,0,0
0.6,0.62,0,-0.00131884016,0,-0.199252263,0,-9.74739715,7.75179034,0,0.00239263198,0,0.00789262905,0,12.8350238,0,0.0145611048,0,0,0,12.8350321,0,0
0.62,0.64,0,-0.00165300928,0,-0.198560869,0,-9.74393662,8.00843575,0,0.00269622617,0,0.00786290697,0,12.8295205,0,0.0158099589,0,0,0,12.8295303,0,0
0.64,0.66,0,-0.00198483274,0,-0.197879787,0,-9.74041961,8.26497131,0,0.00302549969,0,0.00782652434,0,12.8240385,0,0.0171292073,0,0,0,12.8240499,0,0
0.66,0.68,0,-0.0023139999,0,-0.197207948,0,-9.73685775,8.52139744,0,0.00338186981,0,0.00778353139,0,12.8185788,0,0.0185197498,0,0,0,12.8185922,0,0
0.68,0.7,0,-0.00264030226,0,-0.196544386,0,-9.73326176,8.77771462,0,0.00376676951,0,0.00773398346,0,12.8131427,0,0.0199822601,0,0,0,12.8131583,0,0
0.7,0.72,0,-0.00296361467,0,-0.195888248,0,-9.7296414,9.03392331,0,0.00418164317,0,0.00767793924,0,12.8077311,0,0.0215172069,0,0,0,12.8077492,0,0
0.72,0.74,0,-0.0032838787,0,-0.195238785,0,-9.72600544,9.29002403,0,0.00462794264,0,0.00761545921,0,12.8023452,0,0.0231248755,0,0,0,12.8023661,0,0
0.74,0.76,0,-0.00360108809,0,-0.194595355,0,-9.72236176,9.5460173,0,0.00510712385,0,0.00754660447,0,12.7969862,0,0.0248053883,0,0,0,12.7970102,0,0
0.76,0.78,0,-0.00391527623,0,-0.193957414,0,-9.71871734,9.80190367,0,0.00562064368,0,0.00747143584,0,12.7916551,0,0.0265587239,0,0,0,12.7916827,0,0
0.78,0.8,0,-0.00422650544,0,-0.193324513,0,-9.71507829,10.0576837,0,0.00616995733,0,0.00739001315,0,12.786353,0,0.0283847359,0,0,0,12.7863845,0,0
0.8,0.82,0,-0.00453485791,0,-0.192696287,0,-9.71144997,10.313358,0,0.00675651595,0,0.0073023948,0,12.7810811,0,0.030283169,0,0,0,12.781117,0,0
0.82,0.84,0,-0.00484042818,0,-0.192072451,0,-9.70783702,10.5689272,0,0.0073817646,0,0.00720863738,0,12.7758404,0,0.0322536749,0,0,0,12.7758811,0,0
0.84,0.86,0,-0.00514331695,0,-0.19145279,0,-9.70424339,10.8243918,0,0.00804714059,0,0.00710879555,0,12.770632,0,0.0342958258,0,0,0,12.770678,0,0
0.86,0.88,0,-0.00544362616,0,-0.190837154,0,-9.70067248,11.0797527,0,0.00875407198,0,0.0070029219,0,12.7654569,0,0.0364091273,0,0,0,12.7655089,0,0
0.88,0.9,0,-0.00574145505,0,-0.190225449,0,-9.69712716,11.3350103,0,0.00950397635,0,0.00689106704,0,12.7603163,0,0.0385930284,0,0,0,12.7603747,0,0
0.9,0.92,0,-0.00603689712,0,-0.189617629,0,-9.69360983,11.5901655,0,0.0102982598,0,0.00677327961,0,12.7552112,0,0.0408469321,0,0,0,12.7552766,0,0
0.92,0.94,0,-0.00633003799,0,-0.18901369,0,-9.69012248,11.845219,0,0.0111383161,0,0.00664960649,0,12.7501426,0,0.043170203,0,0,0,12.7502157,0,0
0.94,0.96,0,-0.0066209538,0,-0.188413666,0,-9.68666679,12.1001715,0,0.0120255259,0,0.00652009292,0,12.7451116,0,0.0455621746,0,0,0,12.7451931,0,0
0.96,0.98,0,-0.00690971024,0,-0.18781762,0,-9.68324411,12.3550237,0,0.0129612565,0,0.00638478273,0,12.7401192,0,0.0480221555,0,0,0,12.7402097,0,0
0.98,1,0,-0.00719636196,0,-0.18722564,0,-9.67985556,12.6097765,0,0.0139468608,0,0.00624371854,0,12.7351664,0,0.0505494343,0,0,0,12.7352667,0,0
1,1.02,0,-0.00748095249,0,-0.186637835,0,-9.67650203,12.8644307,0,0.0149836777,0,0.00609694199,0,12.7302542,0,0.0531432836,0,0,0,12.7303651,0,0
1.02,1.04,0,-0.00776351427,0,-0.186054332,0,-9.67318428,13.118987,0,0.016073031,0,0.00594449397,0,12.7253835,0,0.0558029636,0,0,0,12.7255059,0,0
1.04,1.06,0,-0.00804406909,0,-0.185475267,0,-9.6699029,13.3734463,0,0.0172162301,0,0.0057864148,0,12.7205554,0,0.0585277248,0,0,0,12.7206901,0,0
1.06,1.08,0,-0.00832262856,0,-0.184900789,0,-9.66665837,13.6278095,0,0.0184145688,0,0.0056227445,0,12.7157709,0,0.0613168099,0,0,0,12.7159187,0,0
1.08,1.1,0,-0.00859919477,0,-0.184331053,0,-9.66345111,13.8820774,0,0.0196693262,0,0.00545352294,0,12.7110308,0,0.0641694557,0,0,0,12.7111928,0,0
1.1,1.12,0,-0.00887376105,0,-0.183766218,0,-9.66028146,14.136251,0,0.0209817657,0,0.00527879004,0,12.7063361,0,0.0670848941,0,0,0,12.7065132,0,0
1.12,1.14,0,-0.00914631271,0,-0.183206446,0,-9.65714971,14.3903312,0,0.0223531354,0,0.00509858593,0,12.7016878,0,0.070062353,0,0,0,12.7018811,0,0
1.14,1.16,0,-0.00941682789,0,-0.1826519,0,-9.65405613,14.6443188,0,0.0237846681,0,0.00491295111,0,12.6970868,0,0.0731010565,0,0,0,12.6972972,0,0
1.16,1.18,0,-0.00968527828,0,-0.182102742,0,-9.65100096,14.898215,0,0.0252775808,0,0.00472192658,0,12.6925339,0,0.0762002257,0,0,0,12.6927626,0,0
1.18,1.2,0,-0.00995163,0,-0.181559132,0,-9.64798445,15.1520205,0,0.026833075,0,0.00452555397,0,12.6880301,0,0.0793590786,0,0,0,12.6882783,0,0
1.2,1.22,0,-0.0102158442,0,-0.181021231,0,-9.64500683,15.4057365,0,0.0284523366,0,0.00432387563,0,12.6835763,0,0.0825768299,0,0,0,12.6838451,0,0
1.22,1.24,0,-0.0104778781,0,-0.180489194,0,-9.64206834,15.6593639,0,0.0301365356,0,0.00411693473,0,12.6791732,0,0.0858526909,0,0,0,12.6794639,0,0
1.24,1.26,0,-0.0107376851,0,-0.179963172,0,-9.63916922,15.9129038,0,0.0318868264,0,0.00390477535,0,12.6748219,0,0.0891858692,0,0,0,12.6751356,0,0
1.26,1.28,0,-0.0109952159,0,-0.179443316,0,-9.63630973,16.1663571,0,0.0337043472,0,0.0036874425,0,12.670523,0,0.0925755689,0,0,0,12.6708612,0,0
1.28,1.3,0,-0.0112504188,0,-0.178929769,0,-9.63349015,16.4197251,0,0.0355902206,0,0.00346498223,0,12.6662776,0,0.0960209895,0,0,0,12.6666415,0,0
1.3,1.32,0,-0.0115032402,0,-0.178422672,0,-9.63071075,16.6730086,0,0.0375455529,0,0.00323744163,0,12.6620863,0,0.099521326,0,0,0,12.6624774,0,0
1.32,1.34,0,-0.0117536253,0,-0.177922162,0,-9.62797184,16.9262089,0,0.0395714343,0,0.00300486887,0,12.65795,0,0.103075769,0,0,0,12.6583696,0,0
1.34,1.36,0,-0.012001518,0,-0.177428372,0,-9.62527373,17.179327,0,0.0416689389,0,0.00276731323,0,12.6538695,0,0.106683503,0,0,0,12.6543192,0,0
1.36,1.38,0,-0.0122468619,0,-0.17694143,0,-9.62261674,17.432364,0,0.0438391243,0,0.00252482514,0,12.6498455,0,0.110343708,0,0,0,12.6503268,0,0
1.38,1.4,0,-0.0124895998,0,-0.17646146,0,-9.62000122,17.6853212,0,0.0460830315,0,0.00227745613,0,12.6458789,0,0.114055557,0,0,0,12.6463933,0,0
1.4,1.42,0,-0.0127296749,0,-0.175988584,0,-9.6174275,17.9381996,0,0.0484016853,0,0.0020252589,0,12.6419704,0,0.117818218,0,0,0,12.6425194,0,0
1.42,1.44,0,-0.01296703,0,-0.175522918,0,-9.61489594,18.1910004,0,0.0507960934,0,0.00176828727,0,12.6381208,0,0.121630854,0,0,0,12.6387061,0,0
1.44,1.46,0,-0.0132016087,0,-0.175064577,0,-9.61240691,18.4437248,0,0.053267247,0,0.00150659621,0,12.6343307,0,0.125492618,0,0,0,12.634954,0,0
1.46,1.48,0,-0.0134333547,0,-0.174613671,0,-9.60996077,18.696374,0,0.05581612,0,0.0012402418,0,12.630601,0,0.12940266,0,0,0,12.6312638,0,0
1.48,1.5,0,-0.0136622125,0,-0.174170307,0,-9.6075579,18.9489493,0,0.0584436695,0,0.000969281272,0,12.6269322,0,0.133360122,0,0,0,12.6276365,0,0
1.5,1.52,0,-0.0138881271,0,-0.17373459,0,-9.60519867,19.2014517,0,0.0611508352,0,0.000693772925,0,12.6233252,0,0.137364138,0,0,0,12.6240726,0,0
1.52,1.54,0,-0.0141110445,0,-0.173306621,0,-9.60288346,19.4538827,0,0.0639385396,0,0.000413776169,0,12.6197806,0,0.141413839,0,0,0,12.6205729,0,0
1.54,1.56,0,-0.0143309113,0,-0.172886498,0,-9.60061265,19.7062434,0,0.0668076875,0,0.000129351483,0,12.616299,0,0.145508345,0,0,0,12.617138,0,0
1.56,1.58,0,-0.0145476751,0,-0.172474318,0,-9.5983866,19.9585351,0,0.0697591662,0,-0.000159439597,0,12.6128811,0,0.149646772,0,0,0,12.6137688,0,0
1.58,1.6,0,-0.0147612845,0,-0.172070175,0,-9.59620569,20.210759,0,0.0727938452,0,-0.000452534493,0,12.6095275,0,0.153828228,0,0,0,12.6104658,0,0
1.6,1.62,0,-0.0149716889,0,-0.171674159,0,-9.59407028,20.4629166,0,0.0759125762,0,-0.000749869611,0,12.606239,0,0.158051817,0,0,0,12.6072297,0,0
1.62,1.64,0,-0.0151788387,0,-0.17128636,0,-9.59198073,20.715009,0,0.0791161927,0,-0.00105138035,0,12.603016,0,0.162316633,0,0,0,12.6040612,0,0
1.64,1.66,0,-0.0153826853,0,-0.170906863,0,-9.58993741,20.9670377,0,0.0824055103,0,-0.00135700114,0,12.5998592,0,0.166621765,0,0,0,12.6009609,0,0
1.66,1.68,0,-0.0155831811,0,-0.170535754,0,-9.58794066,21.2190038,0,0.085781326,0,-0.00166666543,0,12.5967692,0,0.170966298,0,0,0,12.5979293,0,0
1.68,1.7,0,-0.0157802793,0,-0.170173114,0,-9.58599081,21.4709089,0,0.0892444187,0,-0.00198030573,0,12.5937465,0,0.175349307,0,0,0,12.5949672,0,0
1.7,1.72,0,-0.0159739343,0,-0.169819024,0,-9.58408821,21.7227542,0,0.0927955486,0,-0.00229785365,0,12.5907917,0,0.179769864,0,0,0,12.592075,0,0
1.72,1.74,0,-0.0161641014,0,-0.169473562,0,-9.58223317,21.974541,0,0.0964354573,0,-0.00261923985,0,12.5879053,0,0.184227034,0,0,0,12.5892533,0,0
1.74,1.76,0,-0.0163507368,0,-0.169136802,0,-9.580426,22.2262708,0,0.100164868,0,-0.00294439416,0,12.5850879,0,0.188719877,0,0,0,12.5865028,0,0
1.76,1.78,0,-0.0165337976,0,-0.168808821,0,-9.57866703,22.477945,0,0.103984484,0,-0.00327324549,0,12.58234,0,0.193247447,0,0,0,12.5838239,0,0
1.78,1.8,0,-0.0167132422,0,-0.168489688,0,-9.57695653,22.7295649,0,0.107894991,0,-0.00360572195,0,12.579662,0,0.197808793,0,0,0,12.5812171,0,0
1.8,1.82,0,-0.0168890294,0,-0.168179474,0,-9.5752948,22.9811319,0,0.111897054,0,-0.0039417508,0,12.5770545,0,0.20240296,0,0,0,12.578683,0,0
1.82,1.84,0,-0.0170611194,0,-0.167878247,0,-9.57368211,23.2326475,0,0.115991322,0,-0.00428125848,0,12.5745179,0,0.207028986,0,0,0,12.5762221,0,0
1.84,1.86,0,-0.0172294732,0,-0.167586071,0,-9.57211872,23.4841131,0,0.12017842,0,-0.00462417067,0,12.5720527,0,0.211685906,0,0,0,12.5738347,0,0
1.86,1.88,0,-0.0173940527,0,-0.167303012,0,-9.57060489,23.7355301,0,0.124458957,0,-0.00497041225,0,12.5696593,0,0.216372749,0,0,0,12.5715215,0,0
1.88,1.9,0,-0.0175548207,0,-0.16702913,0,-9.56914087,23.9869,0,0.128833523,0,-0.00531990737,0,12.5673381,0,0.221088543,0,0,0,12.5692827,0,0
1.9,1.92,0,-0.017711741,0,-0.166764484,0,-9.56772688,24.2382241,0,0.133302686,0,-0.00567257942,0,12.5650896,0,0.225832307,0,0,0,12.5671189,0,0
1.92,1.94,0,-0.0178647783,0,-0.166509132,0,-9.56636315,24.4895041,0,0.137866995,0,-0.00602835112,0,12.5629141,0,0.230603061,0,0,0,12.5650304,0,0
1.94,1.96,0,-0.0180138983,0,-0.166263129,0,-9.56504989,24.7407412,0,0.142526981,0,-0.00638714444,0,12.560812,0,0.235399817,0,0,0,12.5630176,0,0
1.96,1.98,0,-0.0181590675,0,-0.166026527,0,-9.5637873,24.991937,0,0.147283154,0,-0.00674888071,0,12.5587837,0,0.240221587,0,0,0,12.561081,0,0
1.98,2,0,-0.0183002535,0,-0.165799377,0,-9.56257558,25.243093,0,0.152136005,0,-0.00711348059,0,12.5568296,0,0.245067378,0,0,0,12.5592208,0,0
2,2.02,0,-0.0184374248,0,-0.165581729,0,-9.5614149,25.4942107,0,0.157086003,0,-0.00748086409,0,12.5549499,0,0.249936194,0,0,0,12.5574374,0,0
2.02,2.04,0,-0.0185705506,0,-0.165373627,0,-9.56030543,25.7452915,0,0.1621336,0,-0.00785095061,0,12.5531449,0,0.254827036,0,0,0,12.5557311,0,0
2.04,2.06,0,-0.0186996016,0,-0.165175117,0,-9.55924733,25.996337,0,0.167279225,0,-0.00822365895,0,12.551415,0,0.259738902,0,0,0,12.5541023,0,0
2.06,2.08,0,-0.0188245488,0,-0.164986239,0,-9.55824075,26.2473486,0,0.172523289,0,-0.00859890731,0,12.5497605,0,0.264670789,0,0,0,12.5525511,0,0
2.08,2.1,0,-0.0189453647,0,-0.164807033,0,-9.55728583,26.4983279,0,0.177866183,0,-0.00897661336,0,12.5481816,0,0.269621689,0,0,0,12.551078,0,0
2.1,2.12,0,-0.0190620225,0,-0.164637536,0,-9.5563827,26.7492764,0,0.183308277,0,-0.00935669418,0,12.5466786,0,0.274590595,0,0,0,12.549683,0,0
2.12,2.14,0,-0.0191744965,0,-0.164477784,0,-9.55553147,27.0001956,0,0.18884992,0,-0.00973906637,0,12.5452517,0,0.279576495,0,0,0,12.5483666,0,0
2.14,2.16,0,-0.0192827619,0,-0.164327807,0,-9.55473226,27.251087,0,0.194491443,0,-0.010123646,0,12.5439012,0,0.284578377,0,0,0,12.5471288,0,0
2.16,2.18,0,-0.0193867949,0,-0.164187637,0,-9.55398515,27.5019521,0,0.200233155,0,-0.0105103486,0,12.5426272,0,0.289595227,0,0,0,12.54597,0,0
2.18,2.2,0,-0.0194865727,0,-0.164057301,0,-9.55329023,27.7527926,0,0.206075345,0,-0.0108990894,0,12.5414299,0,0.294626029,0,0,0,12.5448902,0,0
2.2,2.22,0,-0.0195820737,0,-0.163936824,0,-9.55264759,28.0036099,0,0.212018282,0,-0.011289783,0,12.5403096,0,0.299669766,0,0,0,12.5438896,0,0
2.22,2.24,0,-0.0196697322,0,0.31489864,0,-9.55866305,28.2545012,0,0.218062411,0,-0.0116823231,0,12.5488417,0,0.304702027,0,0,0,12.5525404,0,0
2.24,2.26,0,-0.0197394463,0,0.306832851,0,-9.57046209,28.5055625,0,0.224204811,0,-0.0120764521,0,12.5572905,0,0.309502209,0,0,0,12.5611041,0,0
2.26,2.28,0,-0.0197832921,0,0.306076745,0,-9.58092159,28.7567933,0,0.230441149,0,-0.012471728,0,12.5658023,0,0.314099735,0,0,0,12.5697274,0,0
2.28,2.3,0,-0.0197955052,0,0.301292795,0,-9.59026395,29.0081942,0,0.236767594,0,-0.0128675724,0,12.5742964,0,0.318516658,0,0,0,12.5783299,0,0
2.3,2.32,0,-0.0197722137,0,0.29647694,0,-9.59859463,29.2597647,0,0.243180746,0,-0.0132633112,0,12.5827722,0,0.322773619,0,0,0,12.5869114,0,0
2.32,2.34,0,-0.019711104,0,0.29536381,0,-9.60611816,29.5115054,0,0.249677588,0,-0.0136582086,0,12.5913033,0,0.326887966,0,0,0,12.5955458,0,0
2.34,2.36,0,-0.0196111193,0,0.290349602,0,-9.61296551,29.7634165,0,0.256255395,0,-0.0140514959,0,12.5998114,0,0.330872276,0,0,0,12.604155,0,0
2.36,2.38,0,-0.0194722813,0,0.285351602,0,-9.61920467,30.0154974,0,0.26291169,0,-0.0144423942,0,12.6082963,0,0.334738639,0,0,0,12.612739,0,0
2.38,2.4,0,-0.0192954691,0,0.28033172,0,-9.62494885,30.2677479,0,0.269644216,0,-0.0148301338,0,12.6167569,0,0.338496761,0,0,0,12.6212968,0,0
2.4,2.42,0,-0.0190822248,0,0.275302308,0,-9.63029737,30.5201673,0,0.276450886,0,-0.0152139699,0,12.6251922,0,0.342154276,0,0,0,12.6298277,0,0
2.42,2.44,0,-0.0188345844,0,0.270273666,0,-9.63533697,30.7727551,0,0.283329751,0,-0.0155931934,0,12.6336014,0,0.345717022,0,0,0,12.6383307,0,0
2.44,2.46,0,-0.0185549333,0,0.265254607,0,-9.6401426,31.0255109,0,0.29027896,0,-0.0159671398,0,12.6419836,0,0.349189293,0,0,0,12.6468052,0,0
2.46,2.48,0,-0.0182458843,0,0.260252575,0,-9.6447782,31.278434,0,0.297296736,0,-0.0163351947,0,12.6503381,0,0.352574074,0,0,0,12.6552504,0,0
2.48,2.5,0,-0.0179101755,0,0.255273766,0,-9.64929762,31.531524,0,0.304381349,0,-0.0166967975,0,12.6586641,0,0.355873259,0,0,0,12.6636654,0,0
2.5,2.52,0,-0.0175505876,0,0.250323253,0,-9.65374552,31.7847802,0,0.311531098,0,-0.0170514426,0,12.6669609,0,0.359087838,0,0,0,12.6720497,0,0
2.52,2.54,0,-0.0171698762,0,0.245405112,0,-9.65815832,32.038202,0,0.318744296,0,-0.0173986802,0,12.6752278,0,0.362218079,0,0,0,12.6804023,0,0
2.54,2.56,0,-0.0167707192,0,0.240522541,0,-9.66256512,32.2917888,0,0.326019253,0,-0.0177381147,0,12.6834641,0,0.365263675,0,0,0,12.6887225,0,0
2.56,2.58,0,-0.0163556771,0,0.235677976,0,-9.66698853,32.5455401,0,0.333354269,0,-0.0180694031,0,12.691669,0,0.36822388,0,0,0,12.6970095,0,0
2.58,2.6,0,-0.0159271362,0,0.234335791,0,-9.67149376,32.7994558,0,0.340747633,0,-0.0183922518,0,12.699911,0,0.371097921,0,0,0,12.7053316,0,0
2.6,2.62,0,-0.0154872681,0,0.229500017,0,-9.67608612,33.053536,0,0.348197585,0,-0.018706413,0,12.7081186,0,0.373882434,0,0,0,12.7136174,0,0
2.62,2.64,0,-0.0150380831,0,0.224748268,0,-9.68072167,33.3077801,0,0.355702321,0,-0.0190116805,0,12.716292,0,0.376576226,0,0,0,12.7218667,0,0
2.64,2.66,0,-0.0145814229,0,0.220037637,0,-9.68540699,33.5621872,0,0.363260016,0,-0.0193078865,0,12.7244303,0,0.379177976,0,0,0,12.7300787,0,0
2.66,2.68,0,-0.0141189566,0,0.215368679,0,-9.69014503,33.8167568,0,0.370868813,0,-0.0195948987,0,12.7325326,0,0.381686327,0,0,0,12.7382523,0,0
2.68,2.7,0,-0.0136521825,0,0.210741335,0,-9.69493636,34.0714881,0,0.378526832,0,-0.0198726161,0,12.740598,0,0.384099932,0,0,0,12.7463865,0,0
2.7,2.72,0,-0.0131824324,0,0.206155343,0,-9.69977961,34.3263803,0,0.386232166,0,-0.0201409662,0,12.7486256,0,0.386417493,0,0,0,12.7544805,0,0
2.72,2.74,0,-0.0127108789,0,0.201610282,0,-9.7046719,34.5814326,0,0.393982879,0,-0.0203999014,0,12.7566145,0,0.388637791,0,0,0,12.7625332,0,0
2.74,2.76,0,-0.0122385447,0,0.19710562,0,-9.70960918,34.8366443,0,0.401777017,0,-0.0206493962,0,12.7645637,0,0.390759706,0,0,0,12.7705435,0,0
2.76,2.78,0,-0.0117663126,0,0.192640741,0,-9.71458657,35.0920147,0,0.4096126,0,-0.0208894439,0,12.7724723,0,0.392782237,0,0,0,12.7785104,0,0
2.78,2.8,0,-0.0112949373,0,0.188214982,0,-9.7195986,35.3475427,0,0.417487633,0,-0.0211200544,0,12.7803393,0,0.394704508,0,0,0,12.7864328,0,0
2.8,2.82,0,-0.0108250571,0,0.183827653,0,-9.72463943,35.6032277,0,0.425400102,0,-0.0213412514,0,12.7881636,0,0.396525775,0,0,0,12.7943097,0,0
2.82,2.84,0,-0.0103571797,0,0.182679521,0,-9.72974794,35.8590694,0,0.433347989,0,-0.0215530701,0,12.7960084,0,0.398245905,0,0,0,12.8022041,0,0
2.84,2.86,0,-0.00989167591,0,0.178303465,0,-9.73491142,36.1150675,0,0.441329242,0,-0.0217555544,0,12.8038072,0,0.399862287,0,0,0,12.8100496,0,0
2.86,2.88,0,-0.00942885122,0,0.173999714,0,-9.74007592,36.3712212,0,0.449341783,0,-0.021948755,0,12.8115599,0,0.401374794,0,0,0,12.8178457,0,0
2.88,2.9,0,-0.00896895515,0,0.169730839,0,-9.74523747,36.6275294,0,0.457383536,0,-0.022132728,0,12.8192653,0,0.402783373,0,0,0,12.8255915,0,0
2.9,2.92,0,-0.00851216358,0,0.168628889,0,-9.75043571,36.8839919,0,0.465452429,0,-0.0223075339,0,12.826985,0,0.404088574,0,0,0,12.8333485,0,0
2.92,2.94,0,-0.00805856762,0,0.164367606,0,-9.75565986,37.1406082,0,0.473546371,0,-0.0224732358,0,12.8346542,0,0.405288389,0,0,0,12.8410516,0,0
2.94,2.96,0,-0.00760823993,0,0.160174508,0,-9.76085904,37.3973775,0,0.48166326,0,-0.0226298984,0,12.8422724,0,0.406383244,0,0,0,12.8487006,0,0
2.96,2.98,0,-0.0071612388,0,0.156014054,0,-9.76603137,37.6542986,0,0.489801,0,-0.0227775876,0,12.8498386,0,0.407373594,0,0,0,12.8562944,0,0
2.98,3,0,-0.00671761116,0,0.151886296,0,-9.7711746,37.9113704,0,0.497957505,0,-0.0229163704,0,12.8573518,0,0.408259941,0,0,0,12.8638319,0,0
3,3.02,0,-0.00627739503,0,0.147791046,0,-9.77628666,38.168592,0,0.506130703,0,-0.0230463148,0,12.8648107,0,0.409042832,0,0,0,12.8713119,0,0
3.02,3.04,0,-0.00584062177,0,0.143728141,0,-9.78136566,38.4259623,0,0.514318528,0,-0.0231674892,0,12.8722145,0,0.409722855,0,0,0,12.8787336,0,0
3.04,3.06,0,-0.00540731792,0,0.13969743,0,-9.78640987,38.68348,0,0.52251893,0,-0.0232799628,0,12.879562,0,0.410300634,0,0,0,12.8860958,0,0
3.06,3.08,0,-0.00497750673,0,0.135698781,0,-9.79141773,38.9411442,0,0.530729871,0,-0.0233838052,0,12.8868523,0,0.410776829,0,0,0,12.8933975,0,0
3.08,3.1,0,-0.00455120948,0,0.131732076,0,-9.79638779,39.1989535,0,0.538949326,0,-0.0234790865,0,12.8940842,0,0.411152129,0,0,0,12.9006377,0,0
3.1,3.12,0,-0.00412842302,0,0.130733165,0,-9.80136019,39.4569075,0,0.547175292,0,-0.023565877,0,12.9013155,0,0.411427806,0,0,0,12.9078741,0,0
3.12,3.14,0,-0.00370907994,0,0.129709203,0,-9.8063687,39.7150061,0,0.555405769,0,-0.0236442464,0,12.9085441,0,0.411603075,0,0,0,12.9151046,0,0
3.14,3.16,0,-0.00329308822,0,0.125757014,0,-9.81136166,39.9732487,0,0.563638733,0,-0.0237142625,0,12.9157097,0,0.411676808,0,0,0,12.922269,0,0
3.16,3.18,0,-0.00288038661,0,0.121865604,0,-9.81629567,40.2316339,0,0.571872167,0,-0.0237759918,0,12.922812,0,0.41165015,0,0,0,12.9293668,0,0
3.18,3.2,0,-0.00247094117,0,0.118004531,0,-9.82117243,40.4901605,0,0.580104072,0,-0.0238294997,0,12.92985,0,0.411524196,0,0,0,12.9363972,0,0
3.2,3.22,0,-0.00206474125,0,0.114174168,0,-9.82599308,40.7488273,0,0.588332475,0,-0.0238748511,0,12.9368225,0,0.411300016,0,0,0,12.9433591,0,0
3.22,3.24,0,-0.00166179579,0,0.110374657,0,-9.83075862,41.0076328,0,0.596555421,0,-0.023912111,0,12.9437288,0,0.410978661,0,0,0,12.9502517,0,0
3.24,3.26,0,-0.00126212993,0,0.106606126,0,-9.83546996,41.2665758,0,0.604770976,0,-0.0239413448,0,12.9505677,0,0.410561163,0,0,0,12.9570739,0,0
3.26,3.28,0,-0.000865759471,0,0.105678432,0,-9.84016768,41.5256554,0,0.612977236,0,-0.0239626182,0,12.9573945,0,0.410049095,0,0,0,12.963881,0,0
3.28,3.3,0,-0.000472671593,0,0.1019205,0,-9.84484598,41.7848709,0,0.621172298,0,-0.023975997,0,12.964151,0,0.409441433,0,0,0,12.970615,0,0
3.3,3.32,0,-8.28765135e-05,0,0.0982211302,0,-9.84946323,42.0442208,0,0.62935426,0,-0.023981547,0,12.9708369,0,0.408739368,0,0,0,12.9772755,0,0
3.32,3.34,0,0.000303595957,0,0.0945523587,0,-9.85402128,42.3037037,0,0.637521246,0,-0.0239793342,0,12.9774513,0,0.407944039,0,0,0,12.9838615,0,0
3.34,3.36,0,0.000686700376,0,0.0909145157,0,-9.85852135,42.5633182,0,0.645671402,0,-0.0239694256,0,12.9839931,0,0.407056562,0,0,0,12.9903723,0,0
3.36,3.38,0,0.00106637914,0,0.0873077221,0,-9.86296446,42.8230627,0,0.653802897,0,-0.0239518891,0,12.9904615,0,0.406078034,0,0,0,12.9968069,0,0
3.38,3.4,0,0.00144258723,0,0.086441504,0,-9.86738996,43.0829365,0,0.661913927,0,-0.0239267936,0,12.9969098,0,0.405010065,0,0,0,13.0032187,0,0
3.4,3.42,0,0.00181533258,0,0.0855565578,0,-9.87183073,43.342939,0,0.670002701,0,-0.0238942087,0,13.0033361,0,0.403852295,0,0,0,13.0096059,0,0
3.42,3.44,0,0.00218464212,0,0.0819711375,0,-9.87624031,43.6030692,0,0.678067411,0,-0.0238542032,0,13.009685,0,0.402604013,0,0,0,13.0159131,0,0
3.44,3.46,0,0.00255051268,0,0.078441639,0,-9.88057986,43.8633257,0,0.686106263,0,-0.0238068459,0,13.015956,0,0.401266602,0,0,0,13.0221398,0,0
3.46,3.48,0,0.0029129373,0,0.0776108884,0,-9.88489,44.1237073,0,0.694117493,0,-0.0237522057,0,13.0222017,0,0.399841894,0,0,0,13.0283388,0,0
3.48,3.5,0,0.00327192632,0,0.0740946744,0,-9.88916634,44.384213,0,0.702099348,0,-0.0236903513,0,13.028367,0,0.398329245,0,0,0,13.0344548,0,0
3.5,3.52,0,0.0036274605,0,0.0706337703,0,-9.89337052,44.6448412,0,0.710050082,0,-0.0236213516,0,13.0344514,0,0.396730085,0,0,0,13.0404876,0,0
3.52,3.54,0,0.00397949622,0,0.0672031836,0,-9.89750532,44.9055903,0,0.717967979,0,-0.0235452762,0,13.0404541,0,0.395045776,0,0,0,13.0464365,0,0
3.54,3.56,0,0.00432799186,0,0.0664136687,0,-9.90161005,45.1664592,0,0.725851357,0,-0.0234621954,0,13.0464266,0,0.393278123,0,0,0,13.0523528,0,0
3.56,3.58,0,0.00467292821,0,0.0629985921,0,-9.90568023,45.4274467,0,0.73369854,0,-0.0233721802,0,13.0523149,0,0.391426545,0,0,0,13.0581829,0,0
3.58,3.6,0,0.00501426201,0,0.0596378754,0,-9.9096782,45.6885511,0,0.741507865,0,-0.0232753023,0,13.0581188,0,0.389492476,0,0,0,13.0639263,0,0
3.6,3.62,0,0.00535193064,0,0.0563076413,0,-9.9136065,45.9497707,0,0.749277694,0,-0.0231716342,0,13.0638373,0,0.387477287,0,0,0,13.0695824,0,0
3.62,3.64,0,0.00568587749,0,0.0555617643,0,-9.9175035,46.2111043,0,0.757006427,0,-0.0230612499,0,13.0695209,0,0.385382771,0,0,0,13.0752016,0,0
3.64,3.66,0,0.00601607148,0,0.0522488009,0,-9.92136456,46.4725507,0,0.764692469,0,-0.0229442241,0,13.0751169,0,0.383208425,0,0,0,13.0807313,0,0
3.66,3.68,0,0.00634246122,0,0.0489891684,0,-9.92515267,46.7341082,0,0.772334238,0,-0.0228206324,0,13.0806249,0,0.380955703,0,0,0,13.0861712,0,0
3.68,3.7,0,0.00666499926,0,0.0482761017,0,-9.9289062,46.9957755,0,0.779930187,0,-0.0226905513,0,13.0860946,0,0.378626435,0,0,0,13.091571,0,0
3.7,3.72,0,0.00698366162,0,0.0450343389,0,-9.93262066,47.2575512,0,0.787478778,0,-0.0225540582,0,13.0914741,0,0.376220221,0,0,0,13.0968789,0,0
3.72,3.74,0,0.00729840289,0,0.0418450772,0,-9.93625974,47.5194337,0,0.794978489,0,-0.022411231,0,13.0967632,0,0.373738571,0,0,0,13.1020947,0,0
3.74,3.76,0,0.0076091803,0,0.0411653199,0,-9.9398614,47.7814215,0,0.80242783,0,-0.0222621486,0,13.1020106,0,0.37118334,0,0,0,13.1072675,0,0
3.76,3.78,0,0.00791599313,0,0.040472936,0,-9.94345684,48.0435138,0,0.809825332,0,-0.0221068902,0,13.1072151,0,0.368554622,0,0,0,13.1123956,0,0
3.78,3.8,0,0.0082188535,0,0.0373115732,0,-9.94700429,48.3057093,0,0.817169521,0,-0.0219455352,0,13.1123258,0,0.36585226,0,0,0,13.1174287,0,0
3.8,3.82,0,0.00851776238,0,0.0366610206,0,-9.95050444,48.5680065,0,0.824458945,0,-0.0217781624,0,13.1173917,0,0.363078296,0,0,0,13.1224156,0,0
3.82,3.84,0,0.00881273011,0,0.0335389503,0,-9.95395433,48.8304041,0,0.831692171,0,-0.0216048509,0,13.1223623,0,0.360232637,0,0,0,13.1273059,0,0
3.84,3.86,0,0.00910375425,0,0.0329089013,0,-9.95735463,49.0929007,0,0.838867786,0,-0.0214256795,0,13.1272862,0,0.357317347,0,0,0,13.1321483,0,0
3.86,3.88,0,0.0093908405,0,0.0298262618,0,-9.96070263,49.3554948,0,0.845984397,0,-0.021240727,0,13.132113,0,0.354332403,0,0,0,13.1368925,0,0
3.88,3.9,0,0.00967396161,0,0.0267941722,0,-9.96396442,49.6181844,0,0.853040626,0,-0.0210500723,0,13.1368427,0,0.351279545,0,0,0,13.1415384,0,0
3.9,3.92,0,0.00995308312,0,0.0261973475,0,-9.9671781,49.8809681,0,0.860035139,0,-0.0208537952,0,13.1415226,0,0.348160757,0,0,0,13.1461338,0,0
3.92,3.94,0,0.0102281845,0,0.0231849681,0,-9.97034044,50.1438445,0,0.866966614,0,-0.0206519758,0,13.1461035,0,0.34497604,0,0,0,13.1506291,0,0
3.94,3.96,0,0.0104992372,0,0.0226099564,0,-9.97345212,50.4068119,0,0.873833754,0,-0.0204446948,0,13.1506329,0,0.341727416,0,0,0,13.1550721,0,0
3.96,3.98,0,0.0107662248,0,0.0196376861,0,-9.97651037,50.669869,0,0.880635281,0,-0.0202320334,0,13.1550617,0,0.338414957,0,0,0,13.1594139,0,0
3.98,4,0,0.0110291215,0,0.0190845027,0,-9.97951609,50.9330141,0,0.887369941,0,-0.0200140731,0,13.1594372,0,0.335040698,0,0,0,13.1637016,0,0
4,4.02,0,0.0112879125,0,0.016152327,0,-9.98246664,51.1962456,0,0.894036495,0,-0.0197908959,0,13.1637108,0,0.331604778,0,0,0,13.1678868,0,0
4.02,4.04,0,0.011542573,0,0.0156211378,0,-9.98536305,51.4595621,0,0.900633734,0,-0.0195625842,0,13.1679293,0,0.328109238,0,0,0,13.1720164,0,0
4.04,4.06,0,0.0117931069,0,0.015080137,0,-9.98823669,51.7229624,0,0.90716047,0,-0.0193292205,0,13.1720915,0,0.324554523,0,0,0,13.1760894,0,0
4.06,4.08,0,0.0120395225,0,0.0121979025,0,-9.99104908,51.9864449,0,0.91361552,0,-0.0190908873,0,13.1761497,0,0.320940947,0,0,0,13.1800578,0,0
4.08,4.1,0,0.0122818106,0,0.0116977488,0,-9.99380222,52.250008,0,0.919997729,0,-0.0188476671,0,13.1801503,0,0.317270619,0,0,0,13.1839684,0,0
4.1,4.12,0,0.0125199669,0,0.00885511181,0,-9.99649415,52.5136501,0,0.926305965,0,-0.0185996424,0,13.1840456,0,0.313543875,0,0,0,13.1877734,0,0
4.12,4.14,0,0.0127539531,0,0.00606087462,0,-9.99909317,52.777369,0,0.932539118,0,-0.0183468962,0,13.1878354,0,0.309762605,0,0,0,13.1914728,0,0
4.14,4.16,0,0.012983723,0,0.00559582274,0,-10.0016364,53.0411631,0,0.938696119,0,-0.0180895124,0,13.1915655,0,0.305928796,0,0,0,13.1951124,0,0
4.16,4.18,0,0.0201606751,0,0.00567892369,0,-10.0464025,53.3050311,0,0.944778628,0,-0.0177937946,0,13.195222,0,0.302587072,0,0,0,13.1986909,0,0
4.18,4.2,0,0.0483476287,0,0.00740582222,0,-10.1214093,53.5689709,0,0.950807995,0,-0.017131561,0,13.1987449,0,0.300348302,0,0,0,13.2021618,0,0
4.2,4.22,0,0.0861725711,0,0.0175988939,0,-10.2190996,53.8329805,0,0.956786823,0,-0.0157938561,0,13.2022024,0,0.297227425,0,0,0,13.2055478,0,0
4.22,4.24,0,0.12631236,0,0.0338789019,0,-10.3547824,54.0970584,0,0.962680367,0,-0.0136682254,0,13.2055758,0,0.291590274,0,0,0,13.2087947,0,0
4.24,4.26,0,0.164576647,0,0.0532834738,0,-10.5254258,54.3612022,0,0.968425546,0,-0.0107527611,0,13.20877,0,0.282213919,0,0,0,13.2117845,0,0
4.26,4.28,0,0.198421223,0,0.0793550223,0,-10.7252228,54.6254079,0,0.973938171,0,-0.00711480146,0,13.211758,0,0.268234313,0,0,0,13.2144806,0,0
4.28,4.3,0,0.22685629,0,0.108658939,0,-10.9423188,54.8896705,0,0.979120907,0,-0.0028506983,0,13.2144483,0,0.249145068,0,0,0,13.2167968,0,0
4.3,4.32,0,0.24817568,0,0.13753888,0,-11.1656312,55.1539827,0,0.983867699,0,0.001911905,0,13.2166939,0,0.22462407,0,0,0,13.2186025,0,0
4.32,4.34,0,0.262085674,0,0.169022294,0,-11.385071,55.4183348,0,0.988069923,0,0.0070271544,0,13.2184296,0,0.194715409,0,0,0,13.2198637,0,0
4.34,4.36,0,0.268526394,0,0.199288327,0,-11.590524,55.6827157,0,0.991622226,0,0.0123454434,0,13.2195443,0,0.159700469,0,0,0,13.2205089,0,0
4.36,4.38,0,0.267875673,0,0.226914457,0,-11.7734121,55.9471118,0,0.994427235,0,0.0177208613,0,13.2199335,0,0.12008521,0,0,0,13.2204789,0,0
4.38,4.4,0,0.260616929,0,0.24835292,0,-11.9263595,56.2115072,0,0.996399387,0,0.023016298,0,13.2194613,0,0.0765375155,0,0,0,13.2196829,0,0
4.4,4.42,0,0.247331637,0,0.267017552,0,-12.043924,56.4758843,0,0.997467767,0,0.0281051276,0,13.2181012,0,0.0298498962,0,0,0,13.2181349,0,0
4.42,4.44,0,0.228704494,0,0.279777489,0,-12.1220075,56.740225,0,0.997578327,0,0.0328737687,0,13.2158046,0,-0.0190923803,0,0,0,13.2158184,0,0
4.44,4.46,0,0.205466143,0,0.286104138,0,-12.1585504,57.0045101,0,0.996695285,0,0.0372221178,0,13.2125505,0,-0.0693468266,0,0,0,13.2127325,0,0
4.46,4.48,0,0.178727976,0,0.288083336,0,-12.153573,57.2687211,0,0.994802264,0,0.0410685269,0,13.2083917,0,-0.11992294,0,0,0,13.2089361,0,0
4.48,4.5,0,0.149784724,0,0.281432314,0,-12.1082114,57.5328397,0,0.991902771,0,0.0443560771,0,13.20332,0,-0.169834978,0,0,0,13.2044123,0,0
4.5,4.52,0,0.119775247,0,0.269002246,0,-12.0248167,57.7968482,0,0.988019361,0,0.0470524082,0,13.1973991,0,-0.218170617,0,0,0,13.1992023,0,0
4.52,4.54,0,0.0896304581,0,0.253846467,0,-11.9070376,58.060731,0,0.98319183,0,0.0491458167,0,13.1907588,0,-0.264121418,0,0,0,13.1934028,0,0
4.54,4.56,0,0.0604401797,0,0.232436052,0,-11.7613241,58.3244742,0,0.977475193,0,0.0506430517,0,13.1834549,0,-0.3069618,0,0,0,13.187028,0,0
4.56,4.58,0,0.033268067,0,0.210466728,0,-11.5907042,58.588066,0,0.970938081,0,0.0515775043,0,13.1756452,0,-0.346104235,0,0,0,13.1801902,0,0
4.58,4.6,0,0.00784318236,0,0.184371032,0,-11.4017384,58.851497,0,0.963658041,0,0.0519844542,0,13.1673966,0,-0.381185869,0,0,0,13.1729129,0,0
4.6,4.62,0,-0.0148196318,0,0.157470598,0,-11.2012021,59.1147597,0,0.955720101,0,0.0519094317,0,13.1588245,0,-0.41185089,0,0,0,13.1652681,0,0
4.62,4.64,0,-0.0342860726,0,0.132987692,0,-10.9938692,59.3778491,0,0.947214624,0,0.0514128554,0,13.1500838,0,-0.437924309,0,0,0,13.1573736,0,0
4.64,4.66,0,-0.0505197797,0,0.109399119,0,-10.7848854,59.6407627,0,0.938233924,0,0.0505594684,0,13.1412728,0,-0.459379578,0,0,0,13.1492996,0,0
4.66,4.68,0,-0.0636964791,0,0.087306556,0,-10.5788121,59.9035002,0,0.928869636,0,0.0494124004,0,13.1324781,0,-0.476306449,0,0,0,13.1411129,0,0
4.68,4.7,0,-0.0740972006,0,0.0671007961,0,-10.3794387,60.1660626,0,0.919210676,0,0.0480300875,0,13.1237733,0,-0.488882314,0,0,0,13.1328759,0,0
4.7,4.72,0,-0.0820468649,0,0.0490051401,0,-10.1897287,60.4284524,0,0.909341744,0,0.0464648333,0,13.1152195,0,-0.497348078,0,0,0,13.1246462,0,0
4.72,4.74,0,-0.0875519477,0,0.0331335246,0,-10.013823,60.6906729,0,0.899342382,0,0.0447639046,0,13.1068673,0,-0.50196244,0,0,0,13.1164758,0,0
4.74,4.76,0,-0.09027442,0,0.0195982094,0,-9.85259469,60.9527288,0,0.889287084,0,0.0429818331,0,13.0987574,0,-0.503007679,0,0,0,13.1084119,0,0
4.76,4.78,0,-0.0906159014,0,0.00842289954,0,-9.70918386,61.2146252,0,0.879243256,0,0.0411680881,0,13.0909169,0,-0.500867045,0,0,0,13.1004951,0,0
4.78,4.8,0,-0.0883149296,0,-0.000373094053,0,-9.58386095,61.4763676,0,0.86927127,0,0.0393755678,0,13.0833648,0,-0.495905,0,0,0,13.0927597,0,0
4.8,4.82,0,-0.084021771,0,-0.00686355647,0,-9.47900305,61.7379619,0,0.859422722,0,0.0376480188,0,13.0761082,0,-0.488583231,0,0,0,13.0852329,0,0
4.82,4.84,0,-0.0775115451,0,-0.0110974414,0,-9.39398855,61.9994141,0,0.849741037,0,0.0360303514,0,13.0691487,0,-0.479306843,0,0,0,13.077935,0,0
4.84,4.86,0,-0.0696165743,0,-0.0157085741,0,-9.32981691,62.2607295,0,0.840260143,0,0.0345561671,0,13.0624279,0,-0.468568309,0,0,0,13.0708293,0,0
4.86,4.88,0,-0.0602624958,0,-0.0157997498,0,-9.28517853,62.5219132,0,0.831005354,0,0.0332562176,0,13.055985,0,-0.456780528,0,0,0,13.0639731,0,0
4.88,4.9,0,-0.0501708915,0,-0.0165918082,0,-9.26040618,62.7829703,0,0.821992816,0,0.032149953,0,13.0497513,0,-0.444399978,0,0,0,13.057316,0,0
4.9,4.92,0,-0.0388821991,0,-0.0131145373,0,-9.25503146,63.0439051,0,0.813231047,0,0.0312576737,0,13.0437599,0,-0.431768194,0,0,0,13.050904,0,0
4.92,4.94,0,-0.026917467,0,-0.00796475426,0,-9.26580026,63.3047223,0,0.804721052,0,0.0305997837,0,13.0379864,0,-0.419297112,0,0,0,13.0447269,0,0
4.94,4.96,0,-0.0149853896,0,-0.00132107737,0,-9.2929843,63.565426,0,0.796455451,0,0.030180256,0,13.0324042,0,-0.407374443,0,0,0,13.0387696,0,0
4.96,4.98,0,-0.00293136155,0,0.00669842078,0,-9.33392801,63.8260197,0,0.788420602,0,0.0300018719,0,13.0269875,0,-0.396278968,0,0,0,13.0330135,0,0
4.98,5,0,0.00838639623,0,0.0133172986,0,-9.38553915,64.0865061,0,0.780596646,0,0.0300582363,0,13.0216548,0,-0.386330126,0,0,0,13.0273844,0,0
5,5.02,0,0.0185066634,0,0.0234596157,0,-9.44585814,64.3468868,0,0.772958226,0,0.0303294252,0,13.0164294,0,-0.377755135,0,0,0,13.0219098,0,0
5.02,5.04,0,0.0272512379,0,0.0342351734,0,-9.5123282,64.6071639,0,0.765476327,0,0.0307893775,0,13.0112841,0,-0.370695033,0,0,0,13.0165636,0,0
5.04,5.06,0,0.0345997267,0,0.042792763,0,-9.58238366,64.8673382,0,0.758119852,0,0.0314101942,0,13.0061409,0,-0.365219424,0,0,0,13.0112677,0,0
5.06,5.08,0,0.0406175218,0,0.0541946297,0,-9.65377161,65.12741,0,0.750856855,0,0.0321645113,0,13.0010295,0,-0.361346106,0,0,0,13.0060501,0,0
5.08,5.1,0,0.0454141552,0,0.0655908601,0,-9.72461922,65.3873796,0,0.743655489,0,0.0330267642,0,12.995928,0,-0.359048802,0,0,0,13.0008869,0,0
5.1,5.12,0,0.0491189514,0,0.0741781804,0,-9.7933417,65.6472467,0,0.736484804,0,0.0339738056,0,12.9907637,0,-0.358265668,0,0,0,12.995703,0,0
5.12,5.14,0,0.0518668919,0,0.0851835552,0,-9.85875118,65.9070102,0,0.729315309,0,0.0349851484,0,12.9855729,0,-0.358914132,0,0,0,12.9905321,0,0
5.14,5.16,0,0.0534280086,0,0.095763871,0,-9.91786522,66.1666695,0,0.722119215,0,0.0360412283,0,12.9803388,0,-0.360921961,0,0,0,12.9853556,0,0
5.16,5.18,0,0.0531943824,0,0.102974164,0,-9.97070187,66.426223,0,0.714869859,0,0.0371097105,0,12.9749928,0,-0.364207231,0,0,0,12.9801035,0,0
5.18,5.2,0,0.0515572697,0,0.112064872,0,-10.0153469,66.685669,0,0.707543728,0,0.0381601301,0,12.9695809,0,-0.368576311,0,0,0,12.9748171,0,0
5.2,5.22,0,0.0483615931,0,0.117384451,0,-10.051437,66.9450054,0,0.700120714,0,0.0391610405,0,12.9640425,0,-0.373851805,0,0,0,12.9694319,0,0
5.22,5.24,0,0.0441409589,0,0.121617268,0,-10.0776169,67.2042298,0,0.692585297,0,0.0400881579,0,12.9583783,0,-0.379785817,0,0,0,12.9639425,0,0
5.24,5.26,0,0.0388459791,0,0.127407878,0,-10.0942071,67.4633403,0,0.684926196,0,0.0409189977,0,12.9526458,0,-0.386175248,0,0,0,12.9584013,0,0
5.26,5.28,0,0.0332234473,0,0.129303665,0,-10.1021186,67.7223349,0,0.677137052,0,0.0416397098,0,12.9467983,0,-0.392749423,0,0,0,12.9527541,0,0
5.28,5.3,0,0.0273543182,0,0.132945868,0,-10.0995596,67.9812121,0,0.669216279,0,0.0422469063,0,12.9409015,0,-0.399321069,0,0,0,12.947061,0,0
5.3,5.32,0,0.0207239796,0,0.135539695,0,-10.0883782,68.2399709,0,0.661165076,0,0.0427281633,0,12.9349658,0,-0.405753843,0,0,0,12.9413282,0,0
5.32,5.34,0,0.0140540879,0,0.13439595,0,-10.0701425,68.4986102,0,0.652988625,0,0.0430754894,0,12.9289524,0,-0.411811152,0,0,0,12.9355093,0,0
5.34,5.36,0,0.00777753393,0,0.135292879,0,-10.0453752,68.7571292,0,0.644696313,0,0.0432928861,0,12.9229357,0,-0.417315046,0,0,0,12.929672,0,0
5.36,5.38,0,0.00178461365,0,0.135560118,0,-10.0135279,69.0155279,0,0.636300435,0,0.0433890204,0,12.9169324,0,-0.422163018,0,0,0,12.9238293,0,0
5.38,5.4,0,-0.00448722521,0,0.132433124,0,-9.97653919,69.2738063,0,0.627814516,0,0.0433618679,0,12.9109025,0,-0.426296018,0,0,0,12.9179383,0,0
5.4,5.42,0,-0.0105104361,0,0.131679042,0,-9.93600452,69.5319645,0,0.61925426,0,0.0432110963,0,12.9049232,0,-0.429577502,0,0,0,12.9120711,0,0
5.42,5.44,0,-0.0159820871,0,0.130579751,0,-9.8924907,69.7900039,0,0.610637708,0,0.0429450751,0,12.8990141,0,-0.431914085,0,0,0,12.9062432,0,0
5.44,5.46,0,-0.0207764562,0,0.129321473,0,-9.84706815,70.0479259,0,0.601984331,0,0.0425762981,0,12.893194,0,-0.433254669,0,0,0,12.9004714,0,0
5.46,5.48,0,-0.0248662483,0,0.125147871,0,-9.8008041,70.305732,0,0.593314303,0,0.0421186967,0,12.8874225,0,-0.43357855,0,0,0,12.894714,0,0
5.48,5.5,0,-0.0282775334,0,0.123982534,0,-9.75471659,70.5634238,0,0.58464789,0,0.0415861612,0,12.8817734,0,-0.43289652,0,0,0,12.8890452,0,0
5.5,5.52,0,-0.031063791,0,0.122978243,0,-9.70971017,70.821004,0,0.576004946,0,0.0409917557,0,12.8762599,0,-0.431238021,0,0,0,12.8834792,0,0
5.52,5.54,0,-0.0332909614,0,0.1192925,0,-9.66643481,71.0784748,0,0.567404605,0,0.0403473324,0,12.8708354,0,-0.428644414,0,0,0,12.8779712,0,0
5.54,5.56,0,-0.0350289029,0,0.118863408,0,-9.62542002,71.3358387,0,0.558865016,0,0.0396633755,0,12.8655696,0,-0.425172815,0,0,0,12.8725931,0,0
5.56,5.58,0,-0.0363464547,0,0.115775866,0,-9.58704336,71.5930983,0,0.550403149,0,0.0389489764,0,12.8604117,0,-0.420882774,0,0,0,12.8672969,0,0
5.58,5.6,0,-0.0369939773,0,0.113072732,0,-9.55333777,71.8502559,0,0.542034847,0,0.0382134132,0,12.8553704,0,-0.415815107,0,0,0,12.8620935,0,0
5.6,5.62,0,-0.0363940007,0,0.113828054,0,-9.52389634,72.1073146,0,0.533775489,0,0.0374780504,0,12.8505121,0,-0.410011736,0,0,0,12.8570514,0,0
5.62,5.64,0,-0.0351139043,0,0.115140652,0,-9.49856707,72.3642779,0,0.525638236,0,0.036762266,0,12.8458379,0,-0.40362941,0,0,0,12.8521776,0,0
5.64,5.66,0,-0.0335319542,0,0.114006734,0,-9.47792176,72.6211489,0,0.517633267,0,0.0360755503,0,12.8412877,0,-0.396804083,0,0,0,12.8474169,0,0
5.66,5.68,0,-0.0315517443,0,0.116415442,0,-9.46362732,72.8779308,0,0.509768351,0,0.0354230997,0,12.8369216,0,-0.389629508,0,0,0,12.8428333,0,0
5.68,5.7,0,-0.0286613359,0,0.116363586,0,-9.45469059,73.1346266,0,0.50205002,0,0.0348200784,0,12.8326781,0,-0.382171744,0,0,0,12.8383676,0,0
5.7,5.72,0,-0.0254410142,0,0.119965585,0,-9.45036675,73.3912393,0,0.494482236,0,0.0342789329,0,12.8286126,0,-0.37460033,0,0,0,12.8340807,0,0
5.72,5.74,0,-0.0222559302,0,0.124068113,0,-9.45079746,73.6477724,0,0.487065842,0,0.0338022516,0,12.8247183,0,-0.367052484,0,0,0,12.8299699,0,0
5.74,5.76,0,-0.0192970864,0,0.125536987,0,-9.45534609,73.9042287,0,0.479799297,0,0.0333872146,0,12.8209275,0,-0.359630194,0,0,0,12.8259704,0,0
5.76,5.78,0,-0.0163747723,0,0.130452932,0,-9.46487534,74.1606108,0,0.472679369,0,0.0330296317,0,12.8172962,0,-0.352390653,0,0,0,12.8221395,0,0
5.78,5.8,0,-0.0129537702,0,0.132647045,0,-9.47807271,74.4169212,0,0.465702312,0,0.0327360196,0,12.8137568,0,-0.345360777,0,0,0,12.8184101,0,0
5.8,5.82,0,-0.00949390046,0,0.138347348,0,-9.49400249,74.6731623,0,0.458862761,0,0.0325118168,0,12.8103628,0,-0.338656942,0,0,0,12.8148385,0,0
5.82,5.84,0,-0.00627391011,0,0.141218082,0,-9.51258284,74.9293362,0,0.45215331,0,0.0323547077,0,12.8070426,0,-0.332361768,0,0,0,12.8113545,0,0
5.84,5.86,0,-0.00342484956,0,0.1474469,0,-9.53319933,75.185445,0,0.445565176,0,0.032258412,0,12.8038501,0,-0.326532433,0,0,0,12.8080132,0,0
5.86,5.88,0,-0.000994751814,0,0.150647062,0,-9.55514117,75.4414906,0,0.43908871,0,0.0322149347,0,12.800714,0,-0.321198139,0,0,0,12.8047432,0,0
5.88,5.9,0,0.00101429075,0,0.153928046,0,-9.57767876,75.6974739,0,0.432713872,0,0.0322158231,0,12.7976271,0,-0.316370244,0,0,0,12.801537,0,0
5.9,5.92,0,0.00262490758,0,0.160326586,0,-9.6002505,75.9533966,0,0.42643052,0,0.0322528551,0,12.794645,0,-0.312048024,0,0,0,12.7984497,0,0
5.92,5.94,0,0.00387219445,0,0.163476499,0,-9.6223419,76.20926,0,0.420228688,0,0.0323184004,0,12.7916977,0,-0.308215004,0,0,0,12.7954104,0,0
5.94,5.96,0,0.00479658447,0,0.169703922,0,-9.64354672,76.4650653,0,0.414098791,0,0.0324055924,0,12.7888433,0,-0.304850124,0,0,0,12.7924762,0,0
5.96,5.98,0,0.00543976457,0,0.172584257,0,-9.66355242,76.7208139,0,0.408031771,0,0.0325083907,0,12.7860128,0,-0.301921858,0,0,0,12.789577,0,0
5.98,6,0,0.00584226146,0,0.175327791,0,-9.6820946,76.976506,0,0.402019236,0,0.0326215797,0,12.7832025,0,-0.299395673,0,0,0,12.786708,0,0
6,6.02,0,0.0060421622,0,0.181065695,0,-9.69907834,77.2321427,0,0.396053483,0,0.0327407316,0,12.780472,0,-0.297237529,0,0,0,12.783928,0,0
6.02,6.04,0,0.00607443696,0,0.18338708,0,-9.71442036,77.487725,0,0.390127544,0,0.0328621498,0,12.7777539,0,-0.295407972,0,0,0,12.7811682,0,0
6.04,6.06,0,0.00597056716,0,0.185546557,0,-9.72805093,77.7432529,0,0.384235229,0,0.0329828024,0,12.7750462,0,-0.293868729,0,0,0,12.7784257,0,0
6.06,6.08,0,0.00575850365,0,0.190714908,0,-9.74003687,77.9987275,0,0.378371082,0,0.033100252,0,12.7724107,0,-0.292585415,0,0,0,12.7757615,0,0
6.08,6.1,0,0.00546275573,0,0.192449344,0,-9.75042488,78.2541494,0,0.372530355,0,0.0332125854,0,12.7697809,0,-0.291520783,0,0,0,12.773108,0,0
6.1,6.12,0,0.00510449449,0,0.194039637,0,-9.75924673,78.5095188,0,0.36670902,0,0.0333183462,0,12.7671563,0,-0.290640809,0,0,0,12.770464,0,0
6.12,6.14,0,0.00470177732,0,0.195460318,0,-9.76660102,78.7648357,0,0.360903703,0,0.0334164695,0,12.7645359,0,-0.289913821,0,0,0,12.7678278,0,0
6.14,6.16,0,0.00426980153,0,0.196724367,0,-9.77259773,79.0201002,0,0.355111641,0,0.0335062228,0,12.7619192,0,-0.289310719,0,0,0,12.7651981,0,0
6.16,6.18,0,0.00382117252,0,0.197845282,0,-9.77735371,79.2753125,0,0.349330625,0,0.0335871511,0,12.7593058,0,-0.28880507,0,0,0,12.7625739,0,0
6.18,6.2,0,0.00336620263,0,0.202065821,0,-9.78103449,79.5304731,0,0.34355892,0,0.0336590279,0,12.7567603,0,-0.28837622,0,0,0,12.7600194,0,0
6.2,6.22,0,0.00291319454,0,0.20290064,0,-9.78375198,79.7855829,0,0.337795215,0,0.0337218127,0,12.7542174,0,-0.28800165,0,0,0,12.7574687,0,0
6.22,6.24,0,0.00219051748,0,0.203638028,0,-9.78398182,80.0406419,0,0.332038508,0,0.033774261,0,12.7516777,0,-0.287684501,0,0,0,12.7549224,0,0
6.24,6.26,0,0.000638983941,0,0.207376708,0,-9.78240206,80.2956507,0,0.326287321,0,0.0338034498,0,12.7492058,0,-0.287437222,0,0,0,12.7524456,0,0
6.26,6.28,0,-0.00128524505,0,0.207510415,0,-9.7792845,80.5506101,0,0.320541165,0,0.0337972648,0,12.746739,0,-0.287167256,0,0,0,12.7499733,0,0
6.28,6.3,0,-0.00328799938,0,0.207392082,0,-9.77411373,80.8055203,0,0.31480128,0,0.0337514767,0,12.7442822,0,-0.286799582,0,0,0,12.7475089,0,0
6.3,6.32,0,-0.00521248341,0,0.207030517,0,-9.76703468,81.0603815,0,0.309070208,0,0.0336662443,0,12.7418399,0,-0.286278063,0,0,0,12.7450554,0,0
6.32,6.34,0,-0.00698014588,0,0.209754624,0,-9.75841514,81.3151947,0,0.303351426,0,0.0335440103,0,12.7394821,0,-0.285565249,0,0,0,12.7426823,0,0
6.34,6.36,0,-0.00855690729,0,0.209023499,0,-9.74863029,81.569961,0,0.297649069,0,0.0333883041,0,12.7371473,0,-0.284631934,0,0,0,12.7403272,0,0
6.36,6.38,0,-0.00993386446,0,0.208239787,0,-9.73801179,81.8246808,0,0.291967736,0,0.033203062,0,12.7348405,0,-0.283460746,0,0,0,12.7379949,0,0
6.38,6.4,0,-0.0111161156,0,0.210704719,0,-9.7269553,82.0793555,0,0.286312257,0,0.0329922451,0,12.732632,0,-0.282046014,0,0,0,12.7357554,0,0
6.4,6.42,0,-0.0121162462,0,0.20981307,0,-9.71575676,82.3339863,0,0.280687542,0,0.0327596301,0,12.7304587,0,-0.280384431,0,0,0,12.7335461,0,0
6.42,6.44,0,-0.0129505895,0,0.208971854,0,-9.70461914,82.5885741,0,0.275098503,0,0.0325086996,0,12.7283252,0,-0.278479425,0,0,0,12.7313712,0,0
6.44,6.46,0,-0.0136369928,0,0.208163702,0,-9.69374704,82.8431196,0,0.269549937,0,0.0322425921,0,12.7262347,0,-0.276338649,0,0,0,12.7292345,0,0
6.46,6.48,0,-0.0141934685,0,0.210727083,0,-9.68334508,83.0976244,0,0.264046429,0,0.0319640855,0,12.7242564,0,-0.273975992,0,0,0,12.7272057,0,0
6.48,6.5,0,-0.0146373848,0,0.209985713,0,-9.67352446,83.3520902,0,0.258592299,0,0.0316756032,0,12.7223258,0,-0.271403135,0,0,0,12.7252204,0,0
6.5,6.52,0,-0.0149850716,0,0.209351121,0,-9.66431793,83.6065178,0,0.253191609,0,0.0313792312,0,12.720446,0,-0.268634487,0,0,0,12.7232822,0,0
6.52,6.54,0,-0.0152515752,0,0.208787914,0,-9.65577961,83.8609084,0,0.247848123,0,0.0310767412,0,12.7186189,0,-0.265685343,0,0,0,12.7213936,0,0
6.54,6.56,0,-0.0154505146,0,0.21164339,0,-9.64798444,84.1152636,0,0.242565267,0,0.0307696182,0,12.7169133,0,-0.262574382,0,0,0,12.7196237,0,0
6.56,6.58,0,-0.0155940196,0,0.211181508,0,-9.64093404,84.3695853,0,0.237346131,0,0.0304590899,0,12.7152628,0,-0.25931592,0,0,0,12.7179068,0,0
6.58,6.6,0,-0.0156928079,0,0.210828794,0,-9.63457024,84.6238745,0,0.232193513,0,0.0301461553,0,12.7136696,0,-0.255925072,0,0,0,12.7162453,0,0
6.6,6.62,0,-0.0157562426,0,0.21054158,0,-9.62887387,84.8781325,0,0.227109913,0,0.0298316129,0,12.7121349,0,-0.252416373,0,0,0,12.7146407,0,0
6.62,6.64,0,-0.0157923844,0,0.213684665,0,-9.62386226,85.132361,0,0.222097525,0,0.0295160872,0,12.7107268,0,-0.248806542,0,0,0,12.7131617,0,0
6.64,6.66,0,-0.0155318052,0,0.213498712,0,-9.6210656,85.3865619,0,0.217158356,0,0.029201396,0,12.7093783,0,-0.245085515,0,0,0,12.7117412,0,0
6.66,6.68,0,-0.0144195281,0,0.2135575,0,-9.61987672,85.6407365,0,0.212294978,0,0.0289009479,0,12.7080915,0,-0.241239501,0,0,0,12.710381,0,0
6.68,6.7,0,-0.0129093342,0,0.213888231,0,-9.62009489,85.894886,0,0.207509033,0,0.0286273383,0,12.7068645,0,-0.237355688,0,0,0,12.7090812,0,0
6.7,6.72,0,-0.0112947178,0,0.214475122,0,-9.62223429,86.1490115,0,0.202800523,0,0.0283853103,0,12.7056948,0,-0.233506314,0,0,0,12.7078403,0,0
6.72,6.74,0,-0.00973308998,0,0.215278314,0,-9.626199,86.4031141,0,0.198168188,0,0.0281752185,0,12.704579,0,-0.229745905,0,0,0,12.7066561,0,0
6.74,6.76,0,-0.00830428682,0,0.219643729,0,-9.63175873,86.6571957,0,0.193609801,0,0.0279951136,0,12.7035816,0,-0.226117284,0,0,0,12.7055938,0,0
6.76,6.78,0,-0.0070439593,0,0.220693708,0,-9.63856279,86.9112577,0,0.189122438,0,0.0278419309,0,12.7026305,0,-0.222647269,0,0,0,12.7045816,0,0
6.78,6.8,0,-0.00596278326,0,0.221864142,0,-9.64621237,87.1653012,0,0.184702732,0,0.0277121649,0,12.701723,0,-0.219353774,0,0,0,12.703617,0,0
6.8,6.82,0,-0.00505748155,0,0.223076332,0,-9.65438735,87.4193269,0,0.180347043,0,0.0276022494,0,12.700856,0,-0.216246672,0,0,0,12.7026968,0,0
6.82,6.84,0,-0.00431722341,0,0.224299091,0,-9.66280757,87.6733357,0,0.176051599,0,0.0275087668,0,12.7000265,0,-0.213329361,0,0,0,12.7018181,0,0
6.84,6.86,0,-0.00372736649,0,0.225506584,0,-9.67123816,87.9273282,0,0.171812614,0,0.0274285587,0,12.6992316,0,-0.210600109,0,0,0,12.7009777,0,0
6.86,6.88,0,-0.00327166094,0,0.226678278,0,-9.67948914,88.1813051,0,0.167626378,0,0.0273587785,0,12.6984688,0,-0.208053208,0,0,0,12.7001731,0,0
6.88,6.9,0,-0.00293352318,0,0.231214653,0,-9.68746032,88.4352678,0,0.163489303,0,0.027296909,0,12.697804,0,-0.205682787,0,0,0,12.6994698,0,0
6.9,6.92,0,-0.00269679165,0,0.232225103,0,-9.69503364,88.6892175,0,0.15939797,0,0.0272407619,0,12.697166,0,-0.203476913,0,0,0,12.6987963,0,0
6.92,6.94,0,-0.00254624102,0,0.233205227,0,-9.70208033,88.9431546,0,0.155349212,0,0.0271884632,0,12.6965537,0,-0.201423123,0,0,0,12.6981514,0,0
6.94,6.96,0,-0.00246782396,0,0.234108334,0,-9.70855181,89.1970798,0,0.151340119,0,0.0271384318,0,12.6959655,0,-0.199508113,0,0,0,12.697533,0,0
6.96,6.98,0,-0.00244879131,0,0.234932648,0,-9.71442203,89.4509934,0,0.147368053,0,0.0270893547,0,12.6954001,0,-0.197718224,0,0,0,12.6969396,0,0
6.98,7,0,-0.00247773123,0,0.235678135,0,-9.71968385,89.7048959,0,0.143430647,0,0.0270401606,0,12.6948561,0,-0.196039829,0,0,0,12.6963697,0,0
7,7.02,0,-0.00254455549,0,0.236346424,0,-9.72434526,89.9587878,0,0.139525806,0,0.0269899932,0,12.6943327,0,-0.194459624,0,0,0,12.695822,0,0
7.02,7.04,0,-0.00264045102,0,0.236940424,0,-9.72842599,90.2126694,0,0.135651693,0,0.0269381849,0,12.6938289,0,-0.192964869,0,0,0,12.6952955,0,0
7.04,7.06,0,-0.00275780882,0,0.237463998,0,-9.73195465,90.4665411,0,0.131806721,0,0.0268842323,0,12.6933442,0,-0.191543544,0,0,0,12.6947893,0,0
7.06,7.08,0,-0.0028901388,0,0.237921679,0,-9.73496618,90.7204033,0,0.127989536,0,0.0268277729,0,12.692878,0,-0.190184474,0,0,0,12.6943028,0,0
7.08,7.1,0,-0.00303197659,0,0.23831843,0,-9.73749978,90.9742563,0,0.124198996,0,0.0267685636,0,12.6924299,0,-0.188877398,0,0,0,12.6938352,0,0
7.1,7.12,0,-0.00317878667,0,0.238659446,0,-9.7395971,91.2281006,0,0.120434156,0,0.0267064609,0,12.6919996,0,-0.187613007,0,0,0,12.6933862,0,0
7.12,7.14,0,-0.0033268652,0,0.238949989,0,-9.74130085,91.4819364,0,0.116694247,0,0.0266414038,0,12.6915869,0,-0.186382951,0,0,0,12.6929553,0,0
7.14,7.16,0,-0.00347324494,0,0.23919526,0,-9.74265359,91.7357642,0,0.112978659,0,0.0265733978,0,12.6911916,0,-0.185179826,0,0,0,12.6925425,0,0
7.16,7.18,0,-0.00361557431,0,0.242840467,0,-9.74374539,91.9895849,0,0.109286893,0,0.0265025011,0,12.6908824,0,-0.183999936,0,0,0,12.6922162,0,0
7.18,7.2,0,-0.00375201441,0,0.242962713,0,-9.7446087,92.2433996,0,0.105618551,0,0.0264288142,0,12.6905896,0,-0.182836611,0,0,0,12.6919066,0,0
7.2,7.22,0,-0.00388122562,0,0.243095248,0,-9.74523,92.4972086,0,0.101973352,0,0.0263524688,0,12.690314,0,-0.181684859,0,0,0,12.6916145,0,0
7.22,7.24,0,-0.00400228934,0,0.243199751,0,-9.74564613,92.7510123,0,0.0983511077,0,0.0262736195,0,12.6900557,0,-0.180540454,0,0,0,12.6913399,0,0
7.24,7.26,0,-0.00411463864,0,0.243280514,0,-9.74589039,93.0048109,0,0.0947517082,0,0.0261924354,0,12.6898147,0,-0.17939988,0,0,0,12.6910827,0,0
7.26,7.28,0,-0.00421799593,0,0.243341102,0,-9.74599309,93.258605,0,0.0911751062,0,0.026109094,0,12.6895911,0,-0.178260268,0,0,0,12.6908431,0,0
7.28,7.3,0,-0.00431231754,0,0.24338471,0,-9.74598149,93.5123947,0,0.0876213064,0,0.0260237759,0,12.6893851,0,-0.17711932,0,0,0,12.6906211,0,0
7.3,7.32,0,-0.00439774486,0,0.243414165,0,-9.74587986,93.7661805,0,0.0840903543,0,0.0259366606,0,12.6891967,0,-0.175975249,0,0,0,12.6904168,0,0
7.32,7.34,0,-0.00447456189,0,0.243431943,0,-9.74570959,94.0199627,0,0.0805823263,0,0.0258479235,0,12.689026,0,-0.174826715,0,0,0,12.6902303,0,0
7.34,7.36,0,-0.00454315866,0,0.243440189,0,-9.74548932,94.2737416,0,0.0770973219,0,0.025757733,0,12.6888733,0,-0.173672764,0,0,0,12.6900617,0,0
7.36,7.38,0,-0.00460400003,0,0.243440739,0,-9.74523511,94.5275177,0,0.0736354561,0,0.0256662489,0,12.6887385,0,-0.172512771,0,0,0,12.6899112,0,0
7.38,7.4,0,-0.00465759957,0,0.243435146,0,-9.74496066,94.7812913,0,0.0701968536,0,0.0255736212,0,12.6886218,0,-0.171346394,0,0,0,12.6897787,0,0
7.4,7.42,0,-0.00470449789,0,0.243424705,0,-9.74467747,95.0350627,0,0.0667816437,0,0.0254799895,0,12.6885234,0,-0.170173522,0,0,0,12.6896645,0,0
7.42,7.44,0,-0.00474524496,0,0.24341048,0,-9.74439508,95.2888324,0,0.0633899556,0,0.0253854823,0,12.6884432,0,-0.168994238,0,0,0,12.6895686,0,0
7.44,7.46,0,-0.00478038605,0,0.243393332,0,-9.74412129,95.5426006,0,0.0600219154,0,0.0252902171,0,12.6883814,0,-0.167808779,0,0,0,12.6894911,0,0
7.46,7.48,0,-0.00481045069,0,0.243373937,0,-9.74386231,95.7963677,0,0.0566776432,0,0.0251943007,0,12.6883381,0,-0.166617507,0,0,0,12.689432,0,0
7.48,7.5,0,-0.00483594441,0,0.243352817,0,-9.74362301,96.0501342,0,0.0533572508,0,0.0250978296,0,12.6883133,0,-0.165420875,0,0,0,12.6893916,0,0
7.5,7.52,0,-0.00485734269,0,0.243330358,0,-9.74340708,96.3039004,0,0.0500608404,0,0.0250008902,0,12.688307,0,-0.164219408,0,0,0,12.6893697,0,0
7.52,7.54,0,-0.00487508692,0,0.243306833,0,-9.74321718,96.5576666,0,0.0467885029,0,0.0249035602,0,12.6883194,0,-0.163013679,0,0,0,12.6893665,0,0
7.54,7.56,0,-0.00488958192,0,0.243282417,0,-9.74305512,96.8114333,0,0.0435403176,0,0.0248059084,0,12.6883503,0,-0.161804293,0,0,0,12.689382,0,0
7.56,7.58,0,-0.00490119489,0,0.243257206,0,-9.742922,97.0652008,0,0.0403163515,0,0.0247079961,0,12.6884,0,-0.160591873,0,0,0,12.6894162,0,0
7.58,7.6,0,-0.00491025528,0,0.243231232,0,-9.74281833,97.3189694,0,0.0371166588,0,0.0246098776,0,12.6884683,0,-0.159377046,0,0,0,12.6894692,0,0
7.6,7.62,0,-0.00491705563,0,0.243204477,0,-9.74274414,97.5727396,0,0.0339412815,0,0.024511601,0,12.6885552,0,-0.158160436,0,0,0,12.6895409,0,0
7.62,7.64,0,-0.00492185304,0,0.243176881,0,-9.74269909,97.8265118,0,0.0307902491,0,0.0244132087,0,12.6886608,0,-0.156942655,0,0,0,12.6896314,0,0
7.64,7.66,0,-0.00492487103,0,0.243148355,0,-9.74268253,98.0802862,0,0.0276635791,0,0.0243147387,0,12.688785,0,-0.155724298,0,0,0,12.6897406,0,0
7.66,7.68,0,-0.00492630182,0,0.243118791,0,-9.74269362,98.3340633,0,0.0245612772,0,0.0242162245,0,12.6889279,0,-0.15450594,0,0,0,12.6898685,0,0
7.68,7.7,0,-0.00492630885,0,0.243088063,0,-9.74273135,98.5878434,0,0.0214833379,0,0.0241176961,0,12.6890893,0,-0.15328813,0,0,0,12.6900152,0,0
7.7,7.72,0,-0.00492502929,0,0.243056041,0,-9.74279462,98.841627,0,0.0184297448,0,0.0240191807,0,12.6892693,0,-0.152071395,0,0,0,12.6901804,0,0
7.72,7.74,0,-0.00492257668,0,0.24302259,0,-9.74288227,99.0954143,0,0.0154004716,0,0.0239207028,0,12.6894677,0,-0.150856232,0,0,0,12.6903644,0,0
7.74,7.76,0,-0.00491904355,0,0.242987575,0,-9.74299313,99.3492058,0,0.0123954819,0,0.0238222848,0,12.6896846,0,-0.149643116,0,0,0,12.6905669,0,0
7.76,7.78,0,-0.00491450389,0,0.242950865,0,-9.74312602,99.6030018,0,0.00941473037,0,0.0237239477,0,12.6899198,0,-0.148432492,0,0,0,12.6907879,0,0
7.78,7.8,0,-0.00490901553,0,0.242912338,0,-9.7432798,99.8568027,0,0.00645816283,0,0.023625711,0,12.6901733,0,-0.147224783,0,0,0,12.6910273,0,0
7.8,7.82,0,-0.0049026224,0,0.242871877,0,-9.74345339,100.110609,0,0.00352571698,0,0.0235275931,0,12.6904451,0,-0.146020387,0,0,0,12.6912852,0,0
7.82,7.84,0,-0.00489535658,0,0.242829374,0,-9.74364574,100.364421,0,0.000617322741,0,0.0234296119,0,12.6907351,0,-0.144819682,0,0,0,12.6915613,0,0
7.84,7.86,-0.000688373389,-0.00488724027,4.8603533e-06,0.242784562,-0.000525717103,-9.7438559,100.618238,-6.66145322e-08,-0.00226709728,-3.39108183e-06,0.0233317845,1.31381056e-08,12.6910431,-1.38285122e-05,-0.143623023,0,0,0,12.6918557,0,0
7.86,7.88,-0.00321090911,-0.0048782912,8.3771512e-05,0.242736175,-0.00180925598,-9.74408276,100.872062,-8.87114025e-07,-0.00512762739,-4.08461712e-05,0.0232341279,7.02617085e-07,12.6913691,-7.46159007e-05,-0.142430745,0,0,0,12.6921683,0,0
7.88,7.9,-0.00619862891,-0.00486853812,0.000297691837,0.242685166,-0.00182146635,-9.74432503,101.125893,-3.29970976e-06,-0.00796435838,-0.000134962396,0.0231366586,4.28558108e-06,12.6917129,-0.000172150328,-0.141243162,0,0,0,12.6924988,0,0
7.9,7.92,-0.008959161,-0.00485802299,0.000651279306,0.242632339,-0.00121390037,-9.74458157,101.379731,-8.00589668e-06,-0.0107773871,-0.000287067147,0.0230393938,1.35770044e-05,12.6920746,-0.000304239421,-0.140060562,0,0,0,12.6928473,0,0
7.92,7.94,-0.0112442986,-0.00484678623,0.001124899,0.24257768,-0.00039362262,-9.74485136,101.633576,-1.5717886e-05,-0.0135668158,-0.000489598754,0.0229423514,3.12023656e-05,12.6924539,-0.000473368181,-0.138883213,0,0,0,12.6932137,0,0
7.94,7.96,-0.0130152333,-0.00483485257,0.00169148143,0.242521013,0.000457130562,-9.74513354,101.887429,-2.72135163e-05,-0.0163327522,-0.000732402507,0.0228455512,5.9300418e-05,12.6928508,-0.000683256851,-0.137711358,0,0,0,12.6935979,0,0
7.96,7.98,-0.0143220187,-0.00482222493,0.0023242315,0.242462157,0.00126891062,-9.74542734,102.141291,-4.33435744e-05,-0.0190753083,-0.00100558224,0.0227490143,9.94621076e-05,12.6932653,-0.000937336664,-0.13654522,0,0,0,12.6939997,0,0
7.98,8,-0.015244041,-0.00480888517,0.00299969692,0.242400957,0.00202590001,-9.74573203,102.39516,-6.50193477e-05,-0.0217946004,-0.00130061131,0.0226527636,0.000152772119,12.6936972,-0.0012381871,-0.135384997,0,0,0,12.6944192,0,0
8,8.02,-0.0158624606,-0.00479479859,0.00369858952,0.242337284,0.00273542518,-9.74604693,102.649039,-9.31940626e-05,-0.0244907488,-0.00161060579,0.0225568234,0.000219886575,12.6941463,-0.00158742988,-0.134230873,0,0,0,12.6948561,0,0
8.02,8.04,-0.016248928,-0.00477994986,0.00440560028,0.23883214,0.00341266538,-9.74632298,102.902925,-0.000128844611,-0.0271638551,-0.00193022726,0.0224612186,0.000301115679,12.6945439,-0.00198583521,-0.133080499,0,0,0,12.6952416,0,0
8.04,8.06,-0.0164622949,-0.00476436475,0.00510883839,0.238810344,0.00407412671,-9.74656694,103.15682,-0.00017295561,-0.029814,-0.00225544939,0.0223659739,0.000396498147,12.6949595,-0.00243343418,-0.1319348,0,0,0,12.6956453,0,0
8.06,8.08,-0.0165489118,-0.00474804732,0.00579919111,0.238744969,0.00473388147,-9.74682957,103.410724,-0.000226506747,-0.0324412804,-0.00258330024,0.0222711132,0.00050586331,12.6953923,-0.00292972999,-0.130794112,0,0,0,12.6960664,0,0
8.08,8.1,-0.0165443043,-0.00473098822,0.00646972756,0.238678037,0.00540317841,-9.74710873,103.664636,-0.000290463587,-0.0350457999,-0.00291162658,0.0221766595,0.000628880682,12.695842,-0.00347383028,-0.129658751,0,0,0,12.6965046,0,0
8.1,8.12,-0.0164752193,-0.00471316927,0.00711519847,0.23860903,0.0060903032,-9.74740312,103.918558,-0.000365770935,-0.0376276679,-0.00323889699,0.0220826354,0.000765098507,12.6963087,-0.00406456955,-0.128529006,0,0,0,12.6969599,0,0
8.12,8.14,-0.0163615516,-0.00469456691,0.00773163684,0.238537799,0.00680095719,-9.74771164,104.172489,-0.000453348378,-0.0401869994,-0.00356404531,0.0219890628,0.000913973295,12.6967921,-0.00470060574,-0.127405146,0,0,0,12.6974322,0,0
8.14,8.16,-0.0162155416,-0.00467515217,0.00827963125,0.238463501,0.00803059636,-9.74803364,104.426429,-0.000554006151,-0.0427239149,-0.00388634063,0.0218959626,0.00107471658,12.6972921,-0.00536363267,-0.126287485,0,0,0,12.6979213,0,0
8.16,8.18,-0.0160504621,-0.00465487305,0.00867525402,0.238385182,0.0107971971,-9.74836856,104.68038,-0.000667785453,-0.0452385429,-0.00420529266,0.0218033486,0.00124488607,12.6978086,-0.00601457799,-0.125176422,0,0,0,12.698427,0,0
8.18,8.2,-0.0158867108,-0.00463368352,0.00896508179,0.238304317,0.0127896885,-9.74871527,104.934342,-0.000794644435,-0.0477310169,-0.00452080086,0.0217112329,0.0014218732,12.6983414,-0.00667451348,-0.12407212,0,0,0,12.6989493,0,0
8.2,8.22,-0.0157336897,-0.00461155688,0.00918150821,0.238221091,0.0142332803,-9.74907337,105.188314,-0.00093491727,-0.0502014739,-0.00483303904,0.0216196292,0.00160391276,12.6988904,-0.00735754657,-0.122974751,0,0,0,12.699488,0,0
8.22,8.24,-0.0155947487,-0.0045884775,0.00934320248,0.238135459,0.0153749925,-9.74944258,105.442298,-0.00108914958,-0.0526500544,-0.00514229014,0.0215285529,0.0017897383,12.6994555,-0.00807130228,-0.121884498,0,0,0,12.7000429,0,0
8.24,8.26,-0.015470397,-0.00456443593,0.00946102075,0.238047352,0.0163528566,-9.74982264,105.696293,-0.00125800008,-0.0550769025,-0.00544886542,0.0214380197,0.00197837191,12.7000365,-0.00881979741,-0.120801553,0,0,0,12.700614,0,0
8.26,8.28,-0.0153599466,-0.00453942637,0.0095413692,0.237956717,0.0172435686,-9.75021333,105.950299,-0.00144218607,-0.0574821665,-0.00575306861,0.0213480456,0.00216900444,12.7006332,-0.00960505756,-0.119726109,0,0,0,12.7012012,0,0
8.28,8.3,-0.0152598814,-0.00451344283,0.00955168045,0.237861772,0.0185813953,-9.75061478,106.204318,-0.00164237205,-0.0598659987,-0.0060551731,0.0212586456,0.00236075157,12.7012456,-0.0104111539,-0.118658464,0,0,0,12.7018042,0,0
8.3,8.32,-0.0151716089,-0.00448646009,0.00941266231,0.237761058,0.0214058357,-9.75102679,106.458349,-0.00185849503,-0.06222856,-0.00635541478,0.0211698245,0.00255118822,12.7018733,-0.0112008522,-0.117599048,0,0,0,12.7024226,0,0
8.32,8.34,-0.0151066861,-0.00445845904,0.00917422653,0.237658877,0.0234159602,-9.75144869,106.712393,-0.00209044303,-0.064570016,-0.00665421184,0.0210815853,0.00273780195,12.7025162,-0.0119968148,-0.116547942,0,0,0,12.7030566,0,0
8.34,8.36,-0.0150679586,-0.00442943758,0.00887120363,0.237555164,0.0248432593,-9.75188061,106.96645,-0.00233851022,-0.0668905339,-0.00695210342,0.0209939348,0.00291898091,12.7031743,-0.0128145819,-0.115505255,0,0,0,12.7037058,0,0
8.36,8.38,-0.0150539127,-0.00439943195,0.00852410412,0.234035235,0.0259380369,-9.75227448,107.220519,-0.00260323187,-0.0691902625,-0.00724962393,0.0209068822,0.00309365438,12.703779,-0.0136633199,-0.114468738,0,0,0,12.7043021,0,0
8.38,8.4,-0.0150614644,-0.00436852841,0.00814521806,0.233974282,0.0268411232,-9.75263753,107.474601,-0.00288528257,-0.07146933,-0.00754725166,0.0208204369,0.00326107273,12.7043996,-0.0145481268,-0.113439203,0,0,0,12.7049143,0,0
8.4,8.42,-0.0150848373,-0.00433679151,0.00770563594,0.233868348,0.02812275,-9.75302083,107.728695,-0.00318533721,-0.0737278802,-0.00784538565,0.0207346064,0.00342050487,12.7050349,-0.0154553892,-0.112417139,0,0,0,12.7055416,0,0
8.42,8.44,-0.0144336374,-0.00430422522,0.00712351633,0.233758044,0.031371405,-9.7534559,107.982803,-0.00350331653,-0.0759660704,-0.00814094474,0.0206493843,0.00356972442,12.7056846,-0.0163357676,-0.111403306,0,0,0,12.7061835,0,0
8.44,8.46,-0.0119698738,-0.00427067865,0.00638098714,0.233648653,0.0345284507,-9.7539404,108.236923,-0.00383850227,-0.0781840711,-0.008403654,0.0205647564,0.00370580477,12.7063486,-0.0171801853,-0.110398258,0,0,0,12.7068398,0,0
8.46,8.48,-0.00906728593,-0.00423621507,0.00545288932,0.233537021,0.0357973907,-9.75441856,108.491057,-0.00419045816,-0.0803820622,-0.00861142691,0.0204806988,0.00382518914,12.7070269,-0.0180156785,-0.109402437,0,0,0,12.7075106,0,0
8.48,8.5,-0.00641711649,-0.00420110148,0.00435590224,0.23342602,0.0360876391,-9.75491099,108.745204,-0.0045591479,-0.0825602341,-0.00876346448,0.0203971825,0.00392428236,12.7077193,-0.0188545432,-0.108416435,0,0,0,12.7081958,0,0
8.5,8.52,-0.00426401413,-0.00416561834,0.00312263671,0.233316511,0.0359510078,-9.75542597,108.999366,-0.00494468549,-0.0847187891,-0.00886779912,0.0203141792,0.00400001495,12.7084258,-0.0197006328,-0.107440851,0,0,0,12.7088952,0,0
8.52,8.54,-0.00264268438,-0.00412997546,0.00178827013,0.233208367,0.0356507636,-9.7559645,109.253541,-0.00534722313,-0.086857941,-0.00893497481,0.0202316647,0.00405001089,12.7091462,-0.0205544611,-0.106476201,0,0,0,12.7096088,0,0
8.54,8.56,-0.00149924678,-0.00409428969,0.000384847319,0.233101093,0.0353017181,-9.75652415,109.507731,-0.00576691194,-0.0889779128,-0.00897519575,0.0201496207,0.00407257311,12.7098803,-0.0214156552,-0.105522897,0,0,0,12.7103364,0,0
8.56,8.58,-0.000751054517,-0.0040585928,-0.00106062706,0.232994097,0.0349451412,-9.75710122,109.761937,-0.00620389653,-0.0910789345,-0.00899722516,0.0200680348,0.00406659733,12.7106281,-0.0222840359,-0.104581238,0,0,0,12.7110779,0,0
8.58,8.6,-0.000314296217,-0.00402285099,-0.00252633613,0.232886805,0.0345880856,-9.75769189,110.016157,-0.00665832354,-0.0931612413,-0.00900812448,0.0199869007,0.00403146772,12.7113894,-0.0231600113,-0.103651433,0,0,0,12.7118331,0,0
8.6,8.62,-0.000115201166,-0.0039870161,-0.0039950682,0.229388397,0.0342235102,-9.75824492,110.270392,-0.00713035707,-0.0952250518,-0.00901336221,0.0199062174,0.00396695804,12.7120963,-0.0240449104,-0.102731309,0,0,0,12.7125341,0,0
8.62,8.64,-9.32572295e-05,-0.00395106059,-0.00545343054,0.229325023,0.0338398284,-9.75876479,110.524641,-0.00762018831,-0.0972705626,-0.00901705706,0.0198259876,0.00387314726,12.7128173,-0.0249400951,-0.101821519,0,0,0,12.7132495,0,0
8.64,8.66,-0.000200827645,-0.00391492605,-0.00689107608,0.229220494,0.0334260934,-9.75929992,110.778904,-0.0081280434,-0.0992979829,-0.00902224419,0.0197462168,0.00375035082,12.7135514,-0.0258476783,-0.100922291,0,0,0,12.7139782,0,0
8.66,8.68,-0.000401372538,-0.00387853906,-0.00830002075,0.229115438,0.0329731313,-9.75984711,111.033183,-0.00865419436,-0.101307526,-0.00903111714,0.0196669132,0.00359906666,12.7142986,-0.0267701106,-0.100033807,0,0,0,12.7147203,0,0
8.68,8.7,-0.000667335875,-0.00384182086,-0.0096740943,0.229009234,0.0324742169,-9.76040446,111.287476,-0.00919896465,-0.103299408,-0.00904522948,0.0195880871,0.00341993362,12.7150586,-0.0277100732,-0.0991562181,0,0,0,12.7154754,0,0
8.7,8.72,-0.000978166904,-0.00380469407,-0.0110085112,0.228901657,0.0319249496,-9.7609706,111.541785,-0.00976273294,-0.105273848,-0.0090656549,0.0195097509,0.00321369954,12.7158314,-0.0286703874,-0.0982896481,0,0,0,12.7162436,0,0
8.72,8.74,-0.00132108947,-0.0037670872,-0.0122630165,0.22879548,0.0308301077,-9.7615445,111.79611,-0.0103460167,-0.107231067,-0.00909312028,0.0194319201,0.00298137321,12.7166168,-0.0296708541,-0.0974340564,0,0,0,12.7170246,0,0
8.74,8.76,-0.0016823555,-0.00372893991,-0.0133527727,0.228691531,0.0281698641,-9.76212618,112.05045,-0.0109501332,-0.109171282,-0.00912810568,0.0193546264,0.00272563584,12.7174147,-0.0307520691,-0.0965892109,0,0,0,12.7178187,0,0
8.76,8.78,-0.00204113331,-0.00369020561,-0.0143239012,0.228582004,0.0262622662,-9.76271546,112.304806,-0.0115765109,-0.111094709,-0.00917069232,0.0192779034,0.0024493479,12.718225,-0.0318942727,-0.095755422,0,0,0,12.7186255,0,0
8.78,8.8,-0.00238765494,-0.00338993505,-0.0152083635,0.228498273,0.0248828085,-9.76479891,112.559179,-0.0122262271,-0.113001472,-0.00922067726,0.0192030458,0.00215452356,12.7190475,-0.0330844636,-0.0949124371,0,0,0,12.7194446,0,0
8.8,8.82,-0.00272056027,-0.00229825832,-0.0159878921,0.228563432,0.0232920565,-9.76789286,112.813568,-0.0129002484,-0.114890946,-0.00927775281,0.0191424129,0.00184276019,12.7198823,-0.0343329892,-0.0940361517,0,0,0,12.7202762,0,0
8.82,8.84,-0.00303644748,-0.000839014201,-0.0165910328,0.228848726,0.0203331133,-9.77184573,113.067974,-0.0136002016,-0.116763171,-0.00934159524,0.0191077138,0.001516985,12.7207279,-0.0356754668,-0.093198623,0,0,0,12.7211193,0,0
8.84,8.86,-0.00332322236,0.000714202747,-0.0170723046,0.225973593,0.0182493484,-9.77713785,113.322397,-0.014327747,-0.118619525,-0.00941167942,0.0191033251,0.00118015669,12.7215145,-0.0370890907,-0.0924571055,0,0,0,12.7219045,0,0
8.86,8.88,-0.00358061932,0.0022154507,-0.0174325002,0.226685551,0.0162794009,-9.78372791,113.576835,-0.0150842237,-0.120462388,-0.00948736615,0.0191295343,0.000834477329,12.722307,-0.0385757002,-0.0918555921,0,0,0,12.7226971,0,0
8.88,8.9,-0.00380798461,0.00359139585,-0.017611459,0.22749451,0.0131336228,-9.7914449,113.831289,-0.0158714893,-0.122294886,-0.00956804281,0.0191845115,0.0004831979,12.7231014,-0.0401650328,-0.0914246414,0,0,0,12.7234932,0,0
8.9,8.92,-0.00399622031,0.00480987251,-0.0176705729,0.228396935,0.0109806785,-9.80000108,114.085759,-0.0166913369,-0.124120649,-0.00965295394,0.0192654075,0.000129366714,12.7238938,-0.0418302841,-0.0911848221,0,0,0,12.7242893,0,0
8.92,8.94,-0.00414535045,0.00586189707,-0.0176514557,0.229356518,0.00951106518,-9.80910199,114.340245,-0.017545092,-0.125943633,-0.00974127755,0.0193689735,-0.000225042985,12.7246809,-0.0435537491,-0.0911480405,0,0,0,12.7250819,0,0
8.94,8.96,-0.00425954235,0.00675132048,-0.0175786654,0.230341376,0.00843031182,-9.81847571,114.594746,-0.0184338098,-0.127767958,-0.00983225139,0.019491916,-0.000578703959,12.7254592,-0.0453253822,-0.0913192037,0,0,0,12.7258675,0,0
8.96,8.98,-0.00434412008,0.00748884195,-0.017466953,0.231324531,0.00757388877,-9.82788602,114.849263,-0.0193583909,-0.129597784,-0.00992521722,0.019631091,-0.000930674378,12.7262252,-0.047139385,-0.0916976605,0,0,0,12.7266429,0,0
8.98,9,-0.00440422361,0.00808852488,-0.0173254084,0.232284061,0.00685021236,-9.83713672,115.103795,-0.0203196453,-0.131437214,-0.0100196259,0.0197836045,-0.00128024767,12.7269761,-0.0489922959,-0.0922784266,0,0,0,12.7274049,0,0
9,9.02,-0.00444776328,0.00856575803,-0.0171080339,0.233203661,0.00551014079,-9.84607114,115.358342,-0.0213184436,-0.133290214,-0.0101150399,0.0199468607,-0.0016266157,12.7277088,-0.0509059078,-0.093052986,0,0,0,12.7281508,0,0
9.02,9.04,-0.00447481251,0.00893605307,-0.0167025381,0.234069444,0.00208063435,-9.85456988,115.612903,-0.0223566721,-0.13516055,-0.0102111253,0.020118597,-0.00196679,12.7284207,-0.0529321642,-0.0940101135,0,0,0,12.7288779,0,0
9.04,9.06,-0.00447045517,0.00921432159,-0.0161803389,0.231528777,-0.000166850873,-9.86249839,115.867478,-0.0234362648,-0.137051736,-0.0103073218,0.0202968579,-0.00229766927,12.7290425,-0.0550376505,-0.095135484,0,0,0,12.729517,0,0
9.06,9.08,-0.00443178618,0.00915313476,-0.0155913888,0.232274379,-0.00156172278,-9.86831424,116.122065,-0.0245585577,-0.138967109,-0.0104029189,0.0204786948,-0.0026174305,12.7296398,-0.0571995446,-0.096437018,0,0,0,12.7301336,0,0
9.08,9.1,-0.00436192956,0.00823463679,-0.01496519,0.232756516,-0.00245994883,-9.87251675,116.376663,-0.0257245351,-0.1409105,-0.0104972274,0.020650334,-0.00292491362,12.7302096,-0.0594043179,-0.0979252458,0,0,0,12.7307249,0,0
9.1,9.12,-0.00426596582,0.00689504094,-0.0143194952,0.232944115,-0.0030615114,-9.87524559,116.631273,-0.0269349558,-0.142884794,-0.0105896493,0.020798907,-0.00321942669,12.7307517,-0.061642688,-0.0995139404,0,0,0,12.7312898,0,0
9.12,9.14,-0.00354304551,0.00541864234,-0.0136695638,0.232847145,-0.00302171848,-9.8759816,116.885893,-0.0281903672,-0.144891244,-0.0106767109,0.0209191071,-0.0035006477,12.7312669,-0.0638962608,-0.101130304,0,0,0,12.7318289,0,0
9.14,9.16,-0.00119000411,0.00396024992,-0.0130833559,0.232500829,-0.00219756815,-9.8747817,117.140524,-0.0294906654,-0.146929815,-0.0107310289,0.0210099007,-0.00376904582,12.7317573,-0.0661314187,-0.102717989,0,0,0,12.7323434,0,0
9.16,9.18,0.00158322511,0.00260089526,-0.0126192685,0.231951678,-0.00240017045,-9.87187806,117.395163,-0.0308355353,-0.148999483,-0.0107324395,0.0210725368,-0.00402659568,12.7322252,-0.068353709,-0.104233796,0,0,0,12.7328353,0,0
9.18,9.2,0.00416421612,0.00137949515,-0.0122847255,0.231247174,-0.00308001125,-9.86759732,117.649812,-0.0322247201,-0.151098475,-0.0106795816,0.0211094214,-0.00427589272,12.7326732,-0.0705622549,-0.105645892,0,0,0,12.7333069,0,0
9.2,9.22,0.00633252541,0.000310798813,-0.0120648942,0.230430787,-0.00389285524,-9.86227196,117.90447,-0.0336579021,-0.153224477,-0.0105789712,0.0211234754,-0.00451943268,12.7331039,-0.0727524989,-0.106931892,0,0,0,12.7337608,0,0
9.22,9.24,0.00805253978,-0.000604220733,-0.0119378492,0.229540922,-0.00468647813,-9.85621277,118.159137,-0.0351346615,-0.155374811,-0.0104394439,0.0211177661,-0.00475933122,12.7335203,-0.0749191051,-0.108077218,0,0,0,12.7341994,0,0
9.24,9.26,0.00936713814,-0.0013722997,-0.011881551,0.228610449,-0.0054046223,-9.84969572,118.413811,-0.0366544756,-0.157546573,-0.0102696372,0.0210952987,-0.00499725766,12.7339251,-0.0770572174,-0.109073702,0,0,0,12.7346253,0,0
9.26,9.28,0.0103451838,-0.00200430702,-0.0118766625,0.2276667,-0.00603643964,-9.84295696,118.668493,-0.0382167335,-0.159736746,-0.010077007,0.0210589009,-0.00523446318,12.7343207,-0.0791628963,-0.109918366,0,0,0,12.7350411,0,0
9.28,9.3,0.0110572178,-0.00251311336,-0.0119073404,0.226731759,-0.00659051858,-9.83619242,118.923184,-0.0398207551,-0.161942302,-0.00986758462,0.021011163,-0.00547184366,12.7347097,-0.081233173,-0.110612376,0,0,0,12.7354491,0,0
9.3,9.32,0.0115655193,-0.0029123084,-0.0119611147,0.225822935,-0.00708202997,-9.82955992,119.177882,-0.0414658101,-0.164160266,-0.00964605904,0.0209544113,-0.00571000863,12.7350943,-0.0832659411,-0.111160121,0,0,0,12.7358516,0,0
9.32,9.34,0.0119211766,-0.00321542365,-0.012028418,0.224953304,-0.00752674801,-9.82318254,119.432588,-0.0431511332,-0.166387777,-0.00941598048,0.0208907012,-0.00594934417,12.7354765,-0.085259798,-0.111568434,0,0,0,12.7362506,0,0
9.34,9.36,0.0121643203,-0.00343549117,-0.0121020348,0.220813387,-0.00793815788,-9.81710567,119.6873,-0.0448759327,-0.168622111,-0.00917998581,0.0208218234,-0.00619006554,12.7357918,-0.0872134736,-0.111843599,0,0,0,12.7365815,0,0
9.36,9.38,0.0123256293,-0.00358478176,-0.012176586,0.220091204,-0.00832833193,-9.81140215,119.942019,-0.0466394037,-0.170860703,-0.00894000467,0.0207493156,-0.00643225926,12.7361092,-0.0891268999,-0.111996049,0,0,0,12.7369134,0,0
9.38,9.4,0.0124281336,-0.00367458319,-0.0122480946,0.219389718,-0.00870558209,-9.80616449,120.196745,-0.0484407392,-0.173101206,-0.00869743089,0.0206744805,-0.00667591566,12.7364292,-0.0909999128,-0.112036516,0,0,0,12.7372471,0,0
9.4,9.42,0.0124888859,-0.00371512772,-0.0123136393,0.218749599,-0.00907636034,-9.80141497,120.451476,-0.050279131,-0.175341491,-0.00845325898,0.0205984056,-0.00692095375,12.7367532,-0.0928325551,-0.111976055,0,0,0,12.7375837,0,0
9.42,9.44,0.0125203949,-0.00371557166,-0.0123710863,0.218170282,-0.00944528466,-9.79716104,120.706215,-0.0521537734,-0.177579649,-0.00820818918,0.0205219849,-0.00716723991,12.7370822,-0.0946250032,-0.111825736,0,0,0,12.7379245,0,0
9.44,9.46,0.0125317751,-0.00368401127,-0.0124188858,0.217650187,-0.0098155453,-9.79339776,120.96096,-0.0540638649,-0.179813993,-0.00796270663,0.0204459399,-0.00741460187,12.7374171,-0.0963775176,-0.111596391,0,0,0,12.7382706,0,0
9.46,9.48,0.0125296351,-0.00362752336,-0.0124559204,0.217186732,-0.0101892476,-9.79011056,121.215712,-0.0560086099,-0.182043047,-0.00771714017,0.0203708403,-0.00766283915,12.7377587,-0.098090405,-0.111298433,0,0,0,12.7386226,0,0
9.48,9.5,0.0125187508,-0.00355222243,-0.0124813935,0.216776607,-0.0105676881,-9.78727756,121.47047,-0.0579872191,-0.184265539,-0.00747170551,0.0202971242,-0.00791173085,12.7381075,-0.0997639922,-0.110941715,0,0,0,12.7389813,0,0
9.5,9.52,0.012502566,-0.00346332847,-0.0124947477,0.216416003,-0.0109515693,-9.78487162,121.725236,-0.0599989098,-0.186480386,-0.00722653675,0.0202251162,-0.0081610415,12.7384641,-0.101398606,-0.110535435,0,0,0,12.7393472,0,0
9.52,9.54,0.0124835602,-0.00336524092,-0.0124956053,0.216100808,-0.011341163,-9.78286205,121.980009,-0.0620429057,-0.188686683,-0.00698170916,0.0201550447,-0.0084105254,12.7388289,-0.102994563,-0.110088069,0,0,0,12.7397209,0,0
9.54,9.56,0.012463517,-0.00326161554,-0.0124837249,0.215826759,-0.0117364318,-9.78121602,122.234789,-0.0641184365,-0.190883686,-0.00673725576,0.0200870576,-0.00865993004,12.739202,-0.104552153,-0.109607346,0,0,0,12.7401026,0,0
9.56,9.58,0.0124437196,-0.00315544169,-0.01245897,0.215589573,-0.0121371196,-9.77989977,122.489577,-0.0662247378,-0.193070801,-0.00649317914,0.0200212362,-0.00890899858,12.7395838,-0.106071643,-0.109100234,0,0,0,12.7404925,0,0
9.58,9.6,0.0124250902,-0.003049118,-0.0124212862,0.215385044,-0.0125428179,-9.77887953,122.744372,-0.0683610498,-0.195247561,-0.00624946007,0.019957608,-0.00915747194,12.7399743,-0.107553266,-0.108572951,0,0,0,12.7408909,0,0
9.6,9.62,0.0124082913,-0.00294452513,-0.0123706845,0.215209118,-0.012953014,-9.77812226,122.999176,-0.0705266173,-0.197413621,-0.00600606365,0.0198961576,-0.00940509036,12.7403736,-0.108997219,-0.108030987,0,0,0,12.7412978,0,0
9.62,9.64,0.0123937981,-0.00284309451,-0.0123072292,0.215057954,-0.0133671263,-9.77759626,123.253987,-0.0727206885,-0.199568735,-0.00576294373,0.0198368363,-0.00965159463,12.7407816,-0.110403665,-0.107479144,0,0,0,12.7417133,0,0
9.64,9.66,0.01238195,-0.00274587249,-0.0122310283,0.21492796,-0.0137845302,-9.77727154,123.508807,-0.0749425147,-0.201712749,-0.00552004617,0.0197795708,-0.00989672723,12.7411984,-0.111772731,-0.106921572,0,0,0,12.7421373,0,0
9.66,9.68,0.0123729876,-0.00265357928,-0.0121422273,0.214815819,-0.0142045762,-9.77712015,123.763635,-0.0771913492,-0.203845584,-0.00527731113,0.0197242697,-0.0101402331,12.7416239,-0.113104508,-0.106361824,0,0,0,12.7425698,0,0
9.68,9.7,0.0123670793,-0.00256666261,-0.0120410037,0.214718509,-0.0146266044,-9.77711633,124.018472,-0.0794664468,-0.205967227,-0.00503467479,0.0196708302,-0.0103818605,12.7420579,-0.11439905,-0.105802901,0,0,0,12.7430107,0,0
9.7,9.72,0.0123643399,-0.00248534602,-0.0119275627,0.2146333,-0.0150499533,-9.77723665,124.273318,-0.0817670631,-0.208077722,-0.00479207062,0.0196191423,-0.0106213614,12.7425004,-0.115656378,-0.105247309,0,0,0,12.7434599,0,0
9.72,9.74,0.0123648443,-0.00240967178,-0.0118021343,0.214557757,-0.0154739684,-9.77746001,124.528172,-0.0840924537,-0.210177156,-0.00454943028,0.0195690935,-0.0108584925,12.7429511,-0.116876478,-0.104697106,0,0,0,12.7439172,0,0
9.74,9.76,0.0123686369,-0.00233953872,-0.0116649704,0.214489728,-0.0158980065,-9.77776759,124.783036,-0.0864418737,-0.212265653,-0.00430668437,0.0195205717,-0.0110930151,12.74341,-0.118059305,-0.104153959,0,0,0,12.7443825,0,0
9.76,9.78,0.0123757387,-0.00227473516,-0.0115163425,0.214427334,-0.0163214404,-9.77814283,125.037909,-0.0888145769,-0.21434337,-0.00406376292,0.0194734677,-0.011324696,12.7438768,-0.119204778,-0.103619187,0,0,0,12.7448556,0,0
9.78,9.8,0.0123861388,-0.0022149964,-0.0113565414,0.211073771,-0.0167432497,-9.77852467,125.29279,-0.0912098076,-0.216410464,-0.00382059596,0.0194276771,-0.0115533077,12.7442856,-0.120312032,-0.103091601,0,0,0,12.7452704,0,0
9.8,9.82,0.0123998173,-0.00216004439,-0.0111858733,0.211061359,-0.0171635867,-9.77890776,125.54768,-0.0936268074,-0.21846709,-0.00357711401,0.0193831008,-0.0117786287,12.7447028,-0.121381674,-0.102572488,0,0,0,12.7456936,0,0
9.82,9.84,0.0124167563,-0.00210954336,-0.0110046569,0.211013043,-0.0175815422,-9.77933045,125.802579,-0.0960648226,-0.220513425,-0.00333324806,0.0193396454,-0.012000444,12.7451277,-0.122413529,-0.102062575,0,0,0,12.7461242,0,0
9.84,9.86,0.0124369257,-0.00206312161,-0.0108132245,0.210966368,-0.0179965823,-9.77978203,126.057485,-0.0985230954,-0.222549658,-0.0030889297,0.0192972247,-0.0122185452,12.74556,-0.123407407,-0.101562388,0,0,0,12.746562,0,0
9.86,9.88,0.0124602856,-0.00202038752,-0.0106119198,0.210920114,-0.0184081936,-9.78025395,126.312401,-0.101000864,-0.224575988,-0.00284409135,0.0192557599,-0.0124327305,12.7459995,-0.124363088,-0.101072276,0,0,0,12.7470069,0,0
9.88,9.9,0.0124867739,-0.00225869506,-0.0104011094,0.210842129,-0.0188156396,-9.77914983,126.567325,-0.103497363,-0.226592726,-0.00259866638,0.0192138305,-0.0126428019,12.746446,-0.125280386,-0.100614265,0,0,0,12.7474587,0,0
9.9,9.92,0.0125162172,-0.0033414915,-0.0101812751,0.210604052,-0.0192183536,-9.77697719,126.822259,-0.106011822,-0.228600985,-0.00235258873,0.0191582432,-0.0128485417,12.7468989,-0.126159085,-0.100214062,0,0,0,12.7479171,0,0
9.92,9.94,0.0125484787,-0.00481693439,-0.00995289348,0.210131738,-0.0196164962,-9.77390155,127.077201,-0.108543466,-0.230601166,-0.00210579333,0.0190765236,-0.013049753,12.7473596,-0.126998719,-0.0997946207,0,0,0,12.7483828,0,0
9.94,9.96,0.012583505,-0.00639337037,-0.00971637353,0.209435802,-0.0200097101,-9.76935441,127.332153,-0.111091508,-0.232592223,-0.00185821627,0.0189640139,-0.0132462725,12.7478303,-0.1277989,-0.0992928102,0,0,0,12.7488576,0,0
9.96,9.98,0.0126212716,-0.00791521415,-0.00947209097,0.208552106,-0.020397617,-9.76338407,127.587115,-0.113655157,-0.234572021,-0.0016097947,0.0188204078,-0.0134379559,12.7483141,-0.128559305,-0.0986622786,0,0,0,12.7493441,0,0
9.98,10,0.0126617559,-0.00930422732,-0.00922040735,0.207524131,-0.0207798449,-9.75622501,127.842086,-0.116233613,-0.236537638,-0.00136046714,0.018647668,-0.0136246699,12.7488144,-0.129279654,-0.0978703606,0,0,0,12.7498455,0,0
10,10.02,0.0127049261,-0.0105260348,-0.00896167998,0.206395483,-0.0211560391,-9.74818155,128.097067,-0.118826074,-0.238485615,-0.00111017373,0.0184488441,-0.0138062885,12.7493344,-0.129959689,-0.096895583,0,0,0,12.7503649,0,0
10.02,10.04,0.012750738,-0.0115709586,-0.00869626662,0.205206086,-0.0215258687,-9.73956589,128.35206,-0.12143173,-0.240412159,-0.000858856562,0.0182274033,-0.013982691,12.7498776,-0.130599159,-0.0957255913,0,0,0,12.7509058,0,0
10.04,10.06,0.0127991344,-0.0124429944,-0.00842452738,0.203990471,-0.0218890306,-9.73066669,128.607063,-0.124049768,-0.242313303,-0.000606459871,0.0179868565,-0.0141537613,12.7504473,-0.131197814,-0.0943553932,0,0,0,12.7514714,0,0
10.06,10.08,0.0128500472,-0.013153434,-0.00814682518,0.202777248,-0.0222452512,-9.72173479,128.862078,-0.126679369,-0.244185045,-0.000352930225,0.0177305542,-0.0143193883,12.7510464,-0.131755393,-0.0927858574,0,0,0,12.7520647,0,0
10.08,10.1,0.0129033985,-0.0137171549,-0.0078635253,0.201589226,-0.0225942874,-9.71297849,129.117105,-0.129319708,-0.246023444,-9.82166174e-05,0.0174615805,-0.0144794651,12.7516779,-0.132271622,-0.0910224265,0,0,0,12.7526887,0,0
10.1,10.12,0.0129591032,-0.0141504499,-0.0075749946,0.200443872,-0.0229359266,-9.70456384,129.372145,-0.131969956,-0.247824708,0.000157729466,0.017182705,-0.0146338904,12.7523442,-0.132746205,-0.0890740172,0,0,0,12.7533461,0,0
10.12,10.14,0.0130170571,-0.0144697792,-0.00728160232,0.196082233,-0.023269697,-9.69657205,129.627198,-0.134629267,-0.24958523,0.000414953929,0.0168963686,-0.0147825678,12.7529823,-0.133177861,-0.0869500531,0,0,0,12.753974,0,0
10.14,10.16,0.0130771568,-0.0146910562,-0.00698371648,0.195099125,-0.0235959167,-9.68910125,129.882265,-0.137296789,-0.25130163,0.00067349985,0.016604687,-0.014925407,12.7536605,-0.133567216,-0.0846641234,0,0,0,12.7546408,0,0
10.16,10.18,0.0131393104,-0.0148291705,-0.00668170169,0.194148476,-0.0239142649,-9.68226181,130.137345,-0.139971671,-0.252970812,0.000933407856,0.0163094676,-0.0150623236,12.7543798,-0.133913896,-0.0822307182,0,0,0,12.7553479,0,0
10.18,10.2,0.0132034217,-0.0148977623,-0.00637592028,0.193270635,-0.0242246484,-9.6760878,130.39244,-0.142653058,-0.254589976,0.00119471622,0.016012232,-0.0151932393,12.7551419,-0.134217514,-0.0796648603,0,0,0,12.7560968,0,0
10.2,10.22,0.0132693917,-0.0149091251,-0.00606673128,0.192465309,-0.0245269975,-9.67059277,130.647551,-0.145340082,-0.256156624,0.00145746085,0.0157142424,-0.0153180821,12.7559479,-0.134477661,-0.0769816698,0,0,0,12.7568891,0,0
10.22,10.24,0.0133371197,-0.0148741852,-0.00575448938,0.191730728,-0.0248212668,-9.66577316,130.902678,-0.148031871,-0.25766856,0.00172167537,0.0154165287,-0.0154367868,12.7567991,-0.134693908,-0.0741960209,0,0,0,12.757726,0,0
10.24,10.26,0.0127980312,-0.0148025155,-0.00543518665,0.191064608,-0.0255857298,-9.66164181,131.157823,-0.150727602,-0.259123878,0.00198439319,0.0151199155,-0.0155492827,12.7576962,-0.134878031,-0.0713223043,0,0,0,12.7586085,0,0
10.26,10.28,0.0106407811,-0.0144240519,-0.00504747075,0.190489989,-0.0270161803,-9.65976226,131.412986,-0.153426989,-0.260520848,0.00221853747,0.0148263994,-0.01565492,12.7586394,-0.135058878,-0.0683524876,0,0,0,12.7595373,0,0
10.28,10.3,0.00807672435,-0.0131810542,-0.00453742645,0.190127143,-0.0272938847,-9.65954019,131.668169,-0.156129875,-0.261857212,0.0024041929,0.0145496199,-0.0157516377,12.7596299,-0.135226918,-0.0652740232,0,0,0,12.7605134,0,0
10.3,10.32,0.00571731608,-0.0115320099,-0.00390137929,0.190047801,-0.0270069878,-9.660783,131.923372,-0.158835964,-0.263131676,0.00254024333,0.0143023685,-0.0158368456,12.7606666,-0.135379399,-0.0621763747,0,0,0,12.7615362,0,0
10.32,10.34,0.00378082132,-0.00977396325,-0.00315732014,0.190236467,-0.0265221598,-9.66402295,132.178596,-0.161544957,-0.264344633,0.00263341146,0.0140895,-0.0159081514,12.7617477,-0.135517672,-0.0591339808,0,0,0,12.7626042,0,0
10.34,10.36,0.00230044585,-0.00806674657,-0.0023298019,0.187404532,-0.026003476,-9.66912037,132.433841,-0.164256583,-0.265497765,0.00269269286,0.0139114245,-0.0159636211,12.7628052,-0.135643166,-0.0562015145,0,0,0,12.7636498,0,0
10.36,10.38,0.00123108738,-0.00649190338,-0.00144305097,0.188042955,-0.0255136087,-9.67579805,132.689108,-0.166970621,-0.266593706,0.00272683996,0.0137662103,-0.0160018271,12.7639018,-0.135759182,-0.0534207965,0,0,0,12.7647356,0,0
10.38,10.4,0.000501984718,-0.0050862687,-0.000518243129,0.188777355,-0.0250666128,-9.68375069,132.944398,-0.169686898,-0.267635806,0.00274338548,0.0136507846,-0.0160218056,12.7650332,-0.135867257,-0.0508213645,0,0,0,12.7658575,0,0
10.4,10.42,4.10411758e-05,-0.00386128647,0.000427203898,0.189601321,-0.0246557085,-9.69261715,133.19971,-0.172405264,-0.2686279,0.00274840559,0.0135616164,-0.0160229829,12.766196,-0.135968139,-0.0484225814,0,0,0,12.7670119,0,0
10.42,10.44,-0.00021527748,-0.00281415841,0.00137944884,0.190476062,-0.024266954,-9.70206358,133.455046,-0.175125576,-0.269574122,0.00274660907,0.0134951032,-0.0160050989,12.7673865,-0.13606185,-0.046235477,0,0,0,12.7681952,0,0
10.44,10.46,-0.000319070164,-0.00193432792,0.00232771265,0.191368999,-0.0238856527,-9.71179763,133.710406,-0.177847687,-0.27047876,0.00274154541,0.0134477851,-0.0159681395,12.7686014,-0.136147821,-0.0442643384,0,0,0,12.769404,0,0
10.46,10.48,-0.000311302097,-0.00120728241,0.00326369719,0.192253393,-0.0234990195,-9.72157348,133.96579,-0.180571431,-0.271346129,0.00273583411,0.0134164578,-0.0159122797,12.7698375,-0.136225027,-0.0425080871,0,0,0,12.7706349,0,0
10.48,10.5,-0.000223337512,-0.000616801147,0.00418105126,0.193107955,-0.0230970067,-9.73119154,134.221199,-0.18329662,-0.272180481,0.00273137338,0.0133982275,-0.0158378395,12.7710917,-0.136292118,-0.0409614668,0,0,0,12.7718846,0,0
10.5,10.52,-7.87701336e-05,-0.000146321108,0.00507492006,0.190691416,-0.0226723918,-9.74044976,134.476633,-0.186023027,-0.272985915,0.00272951406,0.01339053,-0.0157452497,12.7722967,-0.136346504,-0.039614293,0,0,0,12.7730858,0,0
10.52,10.54,0.000104860377,0.000220255406,0.00594159324,0.191483259,-0.0222199151,-9.74923739,134.732091,-0.188750391,-0.273766312,0.00273119763,0.0133911287,-0.0156350247,12.7735151,-0.13638751,-0.0384559736,0,0,0,12.7743011,0,0
10.54,10.56,0.000314616767,0.000498159163,0.00677823402,0.192172827,-0.0217367491,-9.75751825,134.987574,-0.191478426,-0.274525332,0.0027370624,0.0133981006,-0.0155077434,12.7747439,-0.136413335,-0.0374744227,0,0,0,12.7755272,0,0
10.56,10.58,0.000541001659,0.000701486253,0.00758266873,0.192791834,-0.021221359,-9.76523552,135.243081,-0.194206811,-0.275266381,0.00274752348,0.0134098163,-0.0153640336,12.7759809,-0.136422159,-0.0366565755,0,0,0,12.7767618,0,0
10.58,10.6,0.000777058924,0.000843063776,0.00835323284,0.19333739,-0.0206733519,-9.77235717,135.498613,-0.196935187,-0.275992596,0.0027628323,0.0134249156,-0.0152045604,12.7772241,-0.13641217,-0.0359888891,0,0,0,12.7780029,0,0
10.6,10.62,0.0010176949,0.000934399491,0.00908865736,0.193809051,-0.0200931808,-9.77887108,135.75417,-0.199663161,-0.276706846,0.00278312032,0.0134422812,-0.0150300175,12.7784718,-0.136381589,-0.0354577462,0,0,0,12.7792488,0,0
10.62,10.64,0.00125917385,0.000985686882,0.00978798546,0.194208102,-0.0194819169,-9.78478108,136.009752,-0.202390302,-0.277411727,0.00280843105,0.0134610131,-0.0148411201,12.7797225,-0.136328687,-0.0350497735,0,0,0,12.7804977,0,0
10.64,10.66,0.00150223461,0.00100584673,0.0103982738,0.194539735,-0.0181388782,-9.79010344,136.265359,-0.205116032,-0.278109572,0.00283875881,0.0134804025,-0.0146388514,12.7809752,-0.13622762,-0.0347520187,0,0,0,12.7817485,0,0
10.66,10.68,0.0017411879,0.00100258955,0.0108018619,0.1948075,-0.0146089907,-9.79486463,136.520991,-0.207838676,-0.27880246,0.00287408698,0.0134999138,-0.0144265033,12.7822295,-0.136022899,-0.0345521197,0,0,0,12.7829999,0,0
10.68,10.7,0.00195654487,0.000982497274,0.0110676568,0.195009653,-0.0122037723,-9.79909753,136.776648,-0.210556455,-0.279492233,0.00291407045,0.0135191543,-0.0142075579,12.7834839,-0.135745385,-0.0344387535,0,0,0,12.784251,0,0
10.7,10.72,0.00214198501,0.000951117905,0.011243761,0.195152795,-0.0106032525,-9.80283908,137.03233,-0.213268142,-0.280180517,0.0029581279,0.0135378497,-0.0139842504,12.784737,-0.135416009,-0.0344014474,0,0,0,12.7855004,0,0
10.72,10.74,0.00229793935,0.000913062614,0.0113582353,0.195242958,-0.00945486397,-9.80612944,137.288038,-0.215972825,-0.280868734,0.00300563833,0.013555825,-0.0137580714,12.785988,-0.135046427,-0.0344306273,0,0,0,12.7867475,0,0
10.74,10.76,0.00242749753,0.000872102942,0.0114276587,0.19528578,-0.00856138807,-9.80901025,137.54377,-0.218669773,-0.281558127,0.00305602628,0.013572988,-0.0135300746,12.787236,-0.134643125,-0.0345176446,0,0,0,12.7879914,0,0
10.76,10.78,0.00253690026,0.000831237382,0.0114250731,0.192087234,-0.0073169141,-9.8114778,137.799526,-0.221358258,-0.282249759,0.00310880147,0.0135893139,-0.0133012319,12.7884167,-0.134191759,-0.034652948,0,0,0,12.7891677,0,0
10.78,10.8,0.00262714217,0.000792763323,0.0112738079,0.192093336,-0.00462957167,-9.81358046,138.055306,-0.22403686,-0.282944521,0.00316357597,0.0136048358,-0.0130739812,12.7895949,-0.133657133,-0.0348297119,0,0,0,12.7903407,0,0
10.8,10.82,0.00268858178,0.000758428551,0.0110268055,0.192030986,-0.00280625635,-9.81540521,138.31111,-0.226704143,-0.283643185,0.0032198227,0.0136196275,-0.012850789,12.7907691,-0.133063307,-0.0350422146,0,0,0,12.7915092,0,0
10.82,10.84,0.00272004963,0.00072951094,0.0107209107,0.191941782,-0.00160109434,-9.81698738,138.566937,-0.229359105,-0.284346415,0.00327692292,0.0136337903,-0.0126331713,12.7919387,-0.132426811,-0.0352854919,0,0,0,12.7926728,0,0
10.84,10.86,0.00272442766,0.00070689075,0.0103779564,0.191829844,-0.000753611256,-9.81836058,138.822788,-0.232000994,-0.285054782,0.00333428916,0.0136474456,-0.0124220698,12.7931033,-0.131757324,-0.0355552835,0,0,0,12.7938311,0,0
10.86,10.88,0.00270589226,0.000691115892,0.0100111362,0.191699027,-0.000117859968,-9.81955584,139.078661,-0.234629216,-0.285768779,0.00339141221,0.0136607281,-0.0122180833,12.7942625,-0.131060697,-0.0358479802,0,0,0,12.794984,0,0
10.88,10.9,0.00266864732,0.000682460452,0.00962864598,0.191552745,0.000387794824,-9.82060138,139.334558,-0.237243265,-0.286488833,0.00344787085,0.0136737802,-0.0120216009,12.7954162,-0.130340643,-0.0361605657,0,0,0,12.7961311,0,0
10.9,10.92,0.00261641403,0.000680948713,0.00923577335,0.188216565,0.000808632914,-9.82147755,139.590477,-0.239842694,-0.287215303,0.00350332538,0.0136867467,-0.0118328793,12.7965005,-0.129598938,-0.0364887908,0,0,0,12.7972087,0,0
10.92,10.94,0.00255228801,0.000686385665,0.00883609571,0.188088608,0.00117067297,-9.82221403,139.846418,-0.242427096,-0.287948477,0.00355750553,0.0136997706,-0.0116520878,12.7975795,-0.128838236,-0.0368307722,0,0,0,12.798281,0,0
10.94,10.96,0.00248122932,0.000698459171,0.00839517163,0.187918543,0.00198465686,-9.82287796,140.10238,-0.244996024,-0.288688615,0.00361020854,0.01371299,-0.0114795136,12.7986527,-0.128042912,-0.0371850339,0,0,0,12.7993472,0,0
10.96,10.98,0.0024026066,0.000716766329,0.00783196435,0.187743128,0.00429035333,-9.82348512,140.358364,-0.247548308,-0.289435952,0.0036613023,0.0137265416,-0.0113170267,12.7997202,-0.127176097,-0.0375503558,0,0,0,12.8004071,0,0
10.98,11,0.00230523396,0.000740843947,0.00719708001,0.18756469,0.00574912349,-9.82404947,140.614369,-0.250082747,-0.290190699,0.00371048244,0.0137405542,-0.011166591,12.8007817,-0.126261923,-0.0379260218,0,0,0,12.8014606,0,0
11,11.02,0.00218666636,0.000770194419,0.00652603557,0.187384945,0.00659164807,-9.82458267,140.870395,-0.252598579,-0.290953058,0.00375732428,0.0137551436,-0.0110292552,12.8018368,-0.12531736,-0.0383115323,0,0,0,12.8025075,0,0
11.02,11.04,0.00204879497,0.000804303972,0.00583989406,0.187205028,0.00707079897,-9.82509453,141.126443,-0.255095306,-0.291723223,0.00380141153,0.0137704136,-0.0109055148,12.8028852,-0.124352708,-0.0387065633,0,0,0,12.8035477,0,0
11.04,11.06,0.00189505778,0.000842657091,0.0051513865,0.187025818,0.00732896113,-9.82559311,141.382511,-0.257572596,-0.292501383,0.00384238879,0.0137864564,-0.0107955342,12.8039269,-0.12337451,-0.0391109401,0,0,0,12.804581,0,0
11.06,11.08,0.00172912599,0.000884719882,0.00446841205,0.18369323,0.00744627544,-9.82604015,141.638599,-0.260030219,-0.293287708,0.00387997588,0.013803353,-0.0106992758,12.8048985,-0.122386519,-0.0395228493,0,0,0,12.8055443,0,0
11.08,11.1,0.00155434704,0.000929933659,0.00379603762,0.183557287,0.00746853757,-9.82644784,141.894707,-0.262468018,-0.294082348,0.00391396509,0.0138211726,-0.0106165745,12.8058637,-0.121392658,-0.0399424682,0,0,0,12.8065013,0,0
11.1,11.12,0.00137356022,0.000977783662,0.0031376457,0.183389581,0.00742162724,-9.82686706,142.150833,-0.264885902,-0.29488546,0.00394421179,0.0138399733,-0.0105471823,12.8068217,-0.120395451,-0.0403700942,0,0,0,12.8074512,0,0
11.12,11.14,0.00118908563,0.00102779884,0.00249560196,0.183225624,0.00732066855,-9.82729909,142.406979,-0.267283828,-0.295697207,0.00397062364,0.0138598029,-0.0104907945,12.8077724,-0.119397029,-0.0408060529,0,0,0,12.8083939,0,0
11.14,11.16,0.00100278331,0.00107955259,0.00187164055,0.183065244,0.00717472859,-9.82774493,142.663144,-0.269661788,-0.29651776,0.00399315053,0.0138807,-0.0104470657,12.8087156,-0.118399274,-0.0412506836,0,0,0,12.8093292,0,0
11.16,11.18,0.000816132919,0.00113266232,0.00126708901,0.182908466,0.00698952049,-9.82820493,142.919328,-0.272019814,-0.297347295,0.004011776,0.0139026945,-0.0104156204,12.8096511,-0.11740391,-0.0417043264,0,0,0,12.810257,0,0
11.18,11.2,0.000630311463,0.00118678819,0.000683000581,0.182755256,0.00676891125,-9.82867893,143.17553,-0.274357971,-0.298185995,0.00402651036,0.0139258091,-0.0103960594,12.8105789,-0.116412547,-0.0421673125,0,0,0,12.8111772,0,0
11.2,11.22,0.000446260298,0.0012416312,0.000120232955,0.182605539,0.00651575992,-9.82916636,143.431751,-0.276676353,-0.299034052,0.00403738525,0.0139500599,-0.0103879646,12.8114986,-0.115426708,-0.0426399558,0,0,0,12.8120895,0,0
11.22,11.24,0.000264739366,0.00129693073,-0.000420504349,0.18245921,0.0062323809,-9.82966632,143.68799,-0.278975086,-0.29989166,0.00404444943,0.0139754571,-0.0103909023,12.8124102,-0.114447843,-0.0431225475,0,0,0,12.8129939,0,0
11.24,11.26,8.38968215e-05,0.0013524341,-0.000901534625,0.179184118,0.0054232132,-9.83013322,143.944247,-0.281254399,-0.300759007,0.00404775475,0.0140020048,-0.0104042467,12.8132507,-0.113493854,-0.0436136607,0,0,0,12.8138276,0,0
11.26,11.28,-9.3134226e-05,0.00140787847,-0.0012392046,0.179084413,0.00305602404,-9.83057264,144.20052,-0.283515302,-0.301636267,0.00404733948,0.0140296954,-0.0104257311,12.8140831,-0.112604985,-0.0441138275,0,0,0,12.8146537,0,0
11.28,11.3,-0.0002531539,0.00146304876,-0.00148228017,0.17895318,0.00148036817,-9.83102968,144.45681,-0.285758892,-0.302523623,0.00404345998,0.0140585157,-0.0104529503,12.8149065,-0.111759494,-0.0446233339,0,0,0,12.8154715,0,0
11.3,11.32,-0.000392125293,0.00151777058,-0.00166472596,0.1788254,0.000469504464,-9.83150131,144.713116,-0.287985876,-0.303421264,0.00403652911,0.0140884519,-0.0104843809,12.8157212,-0.110942704,-0.0451424367,0,0,0,12.8162808,0,0
11.32,11.34,-0.000510661918,0.00157190578,-0.00180625675,0.178700786,-0.000226598306,-9.83198505,144.969439,-0.290196739,-0.304329386,0.00402698013,0.0141194897,-0.0105190242,12.8165269,-0.110146522,-0.0456713643,0,0,0,12.8170815,0,0
11.34,11.36,-0.000611157933,0.00162534797,-0.00191842171,0.178579179,-0.000747799936,-9.83247849,145.225777,-0.292391846,-0.305248185,0.00401520879,0.0141516132,-0.010556187,12.8173235,-0.109366535,-0.0462103071,0,0,0,12.8178734,0,0
11.36,11.38,-0.000696416166,0.00167801805,-0.00200807743,0.178460378,-0.0011720432,-9.83297935,145.482132,-0.294571494,-0.306177866,0.00400155494,0.0141848054,-0.010595356,12.8181111,-0.108600368,-0.0467594145,0,0,0,12.8186564,0,0
11.38,11.4,-0.000769049164,0.00172986006,-0.00207937538,0.178344183,-0.00154252117,-9.83348549,145.738502,-0.296735945,-0.307118631,0.0039863022,0.0142190487,-0.010636126,12.8188893,-0.107846771,-0.0473187947,0,0,0,12.8194303,0,0
11.4,11.42,-0.000833740142,0.00178083715,-0.0020977822,0.178229894,-0.00238086179,-9.83399498,145.994887,-0.298885527,-0.308070687,0.00396967407,0.0142543239,-0.0106779784,12.8196579,-0.107122293,-0.0478885847,0,0,0,12.8201949,0,0
11.42,11.44,-0.000889634648,0.00183089917,-0.00198173531,0.175007241,-0.00473489231,-9.83446151,146.251287,-0.301021306,-0.30903423,0.00395182919,0.0142906048,-0.0107188047,12.8203541,-0.106464258,-0.0484671996,0,0,0,12.8208877,0,0
11.44,11.46,-0.000925327152,0.00187996583,-0.00178160504,0.174935512,-0.00626180906,-9.83489036,146.507701,-0.303144395,-0.310009434,0.00393310333,0.0143278637,-0.0107563947,12.821041,-0.105850183,-0.0490547022,0,0,0,12.8215718,0,0
11.46,11.48,-0.000938196741,0.00192798701,-0.00153255581,0.17483283,-0.0071936576,-9.83532645,146.764129,-0.305255502,-0.310996478,0.00391395622,0.0143660749,-0.0107894478,12.821718,-0.105264106,-0.0496511716,0,0,0,12.8222462,0,0
11.48,11.5,-0.000929969456,0.00197493589,-0.00125523247,0.174733266,-0.00778400738,-9.8357669,147.02057,-0.307355086,-0.311995541,0.0038948424,0.0144052147,-0.0108172091,12.8223849,-0.104696759,-0.050256662,0,0,0,12.8229109,0,0
11.5,11.52,-0.000903915127,0.00202080448,-0.000961930898,0.17463631,-0.00817513278,-9.83620955,147.277024,-0.309443462,-0.313006804,0.00387615884,0.0144452598,-0.0108392458,12.8230419,-0.104142623,-0.0508711964,0,0,0,12.8235656,0,0
11.52,11.54,-0.000863530625,0.00206559954,-0.000660122735,0.174541731,-0.00844678501,-9.83665244,147.533492,-0.311520857,-0.314030449,0.00385823074,0.0144861881,-0.0108553189,12.8236886,-0.103598273,-0.0514947651,0,0,0,12.8242105,0,0
11.54,11.56,-0.000811984495,0.00210933898,-0.00035447408,0.174449332,-0.00864364319,-9.83709386,147.789972,-0.313587443,-0.315066655,0.00384131445,0.014527978,-0.0108653083,12.8243251,-0.103061457,-0.052127327,0,0,0,12.8248451,0,0
11.56,11.58,-0.000751936471,0.00187094322,-4.80046133e-05,0.174328296,-0.00879076653,-9.83590656,148.046465,-0.315643354,-0.316115711,0.00382560676,0.0145692429,-0.0108691746,12.8249511,-0.102530495,-0.0527908809,0,0,0,12.8254696,0,0
11.58,11.6,-0.000685526519,0.000780181941,0.000257248682,0.174048359,-0.00890223065,-9.83360312,148.30297,-0.317688693,-0.31717871,0.00381125515,0.014596677,-0.0108669737,12.8255663,-0.102004056,-0.0535110438,0,0,0,12.8260835,0,0
11.6,11.62,-0.000614430512,-0.000705442347,0.000559835126,0.173535082,-0.00898597236,-9.83037785,148.559487,-0.319723542,-0.318256013,0.00379836839,0.0145977063,-0.0108587925,12.8261717,-0.101481432,-0.0542093167,0,0,0,12.8266877,0,0
11.62,11.64,-0.000539950347,-0.00229085993,0.000858660977,0.172800147,-0.0090465979,-9.82565007,148.816017,-0.321747971,-0.31934651,0.00378702519,0.0145676688,-0.0108447127,12.8267696,-0.100961987,-0.0548213689,0,0,0,12.8272841,0,0
11.64,11.66,-0.000463099045,-0.00381890452,0.00115286006,0.171880315,-0.00908686215,-9.81946976,149.072558,-0.323762038,-0.320447978,0.00377728067,0.0145063023,-0.0108248189,12.827363,-0.100445099,-0.0552999915,0,0,0,12.8278754,0,0
11.66,11.68,-0.000384669794,-0.0052107937,0.00144171748,0.170819845,-0.00910850921,-9.81207822,149.329111,-0.325765788,-0.321557398,0.00376917135,0.0144156345,-0.0107992029,12.827955,-0.0999301442,-0.0556119728,0,0,0,12.8284648,0,0
11.68,11.7,-0.000305290149,-0.00643220177,0.00172462341,0.166575154,-0.00911277477,-9.80374472,149.585675,-0.327759246,-0.322671185,0.0037627191,0.0142987842,-0.0107679657,12.8284876,-0.0994158224,-0.0557338009,0,0,0,12.8289939,0,0
11.7,11.72,-0.000225463078,-0.00747385026,0.00200104633,0.165400373,-0.00910047426,-9.79479612,149.842251,-0.329742426,-0.323785399,0.00375793404,0.0141592831,-0.0107312184,12.8290266,-0.0989021677,-0.0556532316,0,0,0,12.8295285,0,0
11.72,11.74,-0.000145597721,-0.00834027222,0.00227051682,0.164171697,-0.00907243856,-9.78557415,150.098837,-0.331715333,-0.324895933,0.00375481692,0.0140006973,-0.010689082,12.8295748,-0.0983885212,-0.0553655523,0,0,0,12.8300715,0,0
11.74,11.76,-6.60325523e-05,-0.00904333733,0.00253261619,0.162951504,-0.00902936429,-9.77633357,150.355434,-0.333677962,-0.325998648,0.00375336076,0.0138264212,-0.0106416874,12.8301353,-0.0978742292,-0.0548720064,0,0,0,12.8306259,0,0
11.76,11.78,1.29477149e-05,-0.00959848926,0.00278696976,0.161762232,-0.00897191904,-9.76728558,150.612042,-0.335630293,-0.327089479,0.00375355221,0.0136395714,-0.0105891743,12.8307111,-0.0973586396,-0.0541784701,0,0,0,12.8311949,0,0
11.78,11.8,9.10997618e-05,-0.0100225468,0.00303324231,0.160621132,-0.00890076115,-9.75859783,150.868662,-0.337572295,-0.328164516,0.00375537258,0.0134429393,-0.010531691,12.8313049,-0.0968411069,-0.0532943202,0,0,0,12.831781,0,0
11.8,11.82,0.000168212654,-0.0103324185,0.00327113504,0.159540662,-0.00881654955,-9.75039756,151.125294,-0.339503921,-0.32922006,0.00375879864,0.0132389776,-0.0104693933,12.8319192,-0.0963209955,-0.0522314742,0,0,0,12.832387,0,0
11.82,11.84,0.000244101285,-0.0105443579,0.00350038329,0.158529165,-0.00871994792,-9.74277607,151.381939,-0.341425113,-0.330252674,0.00376380322,0.0130298062,-0.010402444,12.8325561,-0.0957976837,-0.0510035827,0,0,0,12.8330151,0,0
11.84,11.86,0.000318601596,-0.010673544,0.00372075486,0.157591538,-0.00861162566,-9.73579359,151.638597,-0.343335803,-0.331259201,0.00377035575,0.0128172307,-0.0103310119,12.8332176,-0.0952705663,-0.0496253587,0,0,0,12.8336671,0,0
11.86,11.88,0.000391567099,-0.0107338609,0.00393204865,0.156729849,-0.00849225747,-9.72948418,151.895268,-0.345235907,-0.332236788,0.00377842268,0.0126027653,-0.0102552714,12.8339052,-0.0947390574,-0.0481120279,0,0,0,12.8343451,0,0
11.88,11.9,0.000462866314,-0.0107378016,0.00413409351,0.155943906,-0.00836252199,-9.72386031,152.151953,-0.347125332,-0.333182884,0.00378796779,0.0123876607,-0.0101754014,12.8346204,-0.0942025924,-0.0464788857,0,0,0,12.8350503,0,0
11.9,11.92,0.000532380885,-0.0106964514,0.00432674721,0.155231747,-0.00822310022,-9.71891705,152.408653,-0.349003974,-0.334095245,0.00379895252,0.0121729317,-0.0100915848,12.8353644,-0.0936606299,-0.0447409486,0,0,0,12.8357841,0,0
11.92,11.94,0.000600004174,-0.0106195211,0.0045098955,0.154590072,-0.00807467377,-9.71463585,152.665368,-0.350871717,-0.33497192,0.00381133622,0.0119593853,-0.010004008,12.8361382,-0.0931126531,-0.0429126861,0,0,0,12.8365476,0,0
11.94,11.96,0.000665640194,-0.0105154129,0.00468345119,0.154014607,-0.00791792311,-9.71098783,152.922099,-0.352728436,-0.335811242,0.00382507637,0.0117476475,-0.00991285987,12.8369424,-0.0925581709,-0.0410078227,0,0,0,12.8373416,0,0
11.96,11.98,0.000729202651,-0.0103913278,0.00484735294,0.150434902,-0.00775365958,-9.7078937,153.178845,-0.354573991,-0.336611795,0.00384012881,0.0115381884,-0.00981833135,12.8377165,-0.0919961168,-0.0390376253,0,0,0,12.8381055,0,0
11.98,12,0.000790614467,-0.010253385,0.00500156485,0.150014345,-0.0075822639,-9.7053181,153.435608,-0.356408232,-0.33737239,0.00385644789,0.0113313452,-0.00972061486,12.838523,-0.0914266741,-0.0370139766,0,0,0,12.8389019,0,0
12,12.02,0.00084980743,-0.0101066696,0.00514607595,0.149612034,-0.0074045664,-9.70326211,153.692386,-0.358231006,-0.338092071,0.00387398668,0.011127343,-0.00961990367,12.8393615,-0.090849426,-0.034947899,0,0,0,12.8397305,0,0
12.02,12.04,0.00090672161,-0.00995533598,0.00528089883,0.149255551,-0.00722122507,-9.70167808,153.949182,-0.360042154,-0.33877009,0.00389269713,0.0109263148,-0.00951639136,12.8402323,-0.0902639906,-0.0328493517,0,0,0,12.8405916,0,0
12.04,12.06,0.000961305012,-0.00980271369,0.00540606885,0.148939072,-0.00703289082,-9.70051884,154.205996,-0.361841509,-0.339405889,0.00391253023,0.0107283189,-0.00941027128,12.8411354,-0.0896700134,-0.0307272454,0,0,0,12.8414853,0,0
12.06,12.08,0.00101351327,-0.00965140964,0.00552164321,0.148657222,-0.00684020434,-9.69973825,154.462828,-0.363628896,-0.339999076,0.00393343614,0.0105333544,-0.00930173608,12.8420709,-0.0890671679,-0.0285894764,0,0,0,12.8424116,0,0
12.08,12.1,0.00106330938,-0.00950340445,0.00562770004,0.148404914,-0.00664379494,-9.699292,154.719679,-0.365404134,-0.34054941,0.00395536436,0.0103413748,-0.00919097719,12.8430387,-0.0884551553,-0.0264429755,0,0,0,12.8433706,0,0
12.1,12.12,0.00111066345,-0.00936014239,0.00572433754,0.1481774,-0.00644427937,-9.69913821,154.97655,-0.367167039,-0.341056777,0.00397826387,0.0101522993,-0.0090781844,12.8440387,-0.0878337042,-0.0242937681,0,0,0,12.844362,0,0
12.12,12.14,0.00115555246,-0.0092226142,0.00581167301,0.147970307,-0.0062422608,-9.69923786,155.233441,-0.368917418,-0.341521177,0.00400208325,0.00996602301,-0.00896354544,12.8450707,-0.0872025697,-0.0221470416,0,0,0,12.8453858,0,0
12.14,12.16,0.00119796005,-0.00909143223,0.00588984196,0.147779652,-0.00603832781,-9.69955502,155.490353,-0.370655076,-0.341942705,0.00402677083,0.00978242513,-0.00884724555,12.8461344,-0.086561534,-0.0200072174,0,0,0,12.8464416,0,0
12.16,12.18,0.00123787623,-0.0089669195,0.00595899701,0.144558486,-0.00583322364,-9.70001442,155.747286,-0.372379807,-0.342321525,0.00405227478,0.00960137567,-0.00872946712,12.8471687,-0.085909873,-0.0178765806,0,0,0,12.8474684,0,0
12.18,12.2,0.00127529725,-0.00884919097,0.00601930718,0.14442756,-0.00562714394,-9.7005928,156.00424,-0.374091402,-0.342657849,0.00407854329,0.00942274031,-0.00861038932,12.848235,-0.0852479714,-0.0157581331,0,0,0,12.8485275,0,0
12.2,12.22,0.0013102255,-0.00873815121,0.00607095707,0.144271815,-0.00542082442,-9.70130926,156.261215,-0.375789656,-0.34295195,0.00410552464,0.00924638454,-0.0084901878,12.8493323,-0.0845756808,-0.0136546117,0,0,0,12.8496179,0,0
12.22,12.24,0.0013426614,-0.00835134756,0.00611414704,0.144148243,-0.00521481307,-9.70377684,156.518213,-0.37747436,-0.343204038,0.0041331674,0.00907354861,-0.00836902867,12.8504602,-0.0838929745,-0.0115460963,0,0,0,12.8507392,0,0
12.24,12.26,0.00137255182,-0.00711599003,0.00614910416,0.144184387,-0.00500961438,-9.70746156,156.775234,-0.379145306,-0.343413559,0.00416142103,0.0089174448,-0.00824702399,12.8516185,-0.0831998661,-0.00940863234,0,0,0,12.8518913,0,0
12.26,12.28,0.000694693706,-0.00549096626,0.00618116247,0.144452894,-0.00536786565,-9.71215364,157.032278,-0.380802351,-0.34358072,0.004186761,0.00879055833,-0.00812426915,12.8528059,-0.0825101271,-0.00732251967,0,0,0,12.8530728,0,0
12.28,12.3,-0.00186016725,-0.00377217056,0.00628234611,0.144938454,-0.00650516248,-9.71841659,157.289346,-0.382445979,-0.343707239,0.00417774048,0.00869743817,-0.00800021133,12.8540196,-0.081857363,-0.005353629,0,0,0,12.8542814,0,0
12.3,12.32,-0.00488584186,-0.00211695868,0.00651562631,0.145606066,-0.00630288225,-9.72616865,157.546439,-0.384076823,-0.343795968,0.0041112694,0.00863822075,-0.00787270778,12.8552565,-0.0812307883,-0.00355021677,0,0,0,12.8555136,0,0
12.32,12.34,-0.00767446853,-0.000603870197,0.00688553933,0.143392275,-0.00545657267,-9.73512249,157.803556,-0.385695366,-0.343850567,0.00398605455,0.00861075366,-0.00773901688,12.8564525,-0.0806274434,-0.00194488735,0,0,0,12.8567055,0,0
12.34,12.36,-0.00997466832,0.000733202287,0.007371613,0.144333254,-0.00439566504,-9.74496297,158.060697,-0.387302097,-0.343875232,0.00380986505,0.0086118023,-0.00759660646,12.8576651,-0.0800502065,-0.000559688427,0,0,0,12.8579143,0,0
12.36,12.38,-0.0117493872,0.00188551868,0.00794588168,0.145299805,-0.00331166587,-9.75540423,158.317863,-0.388897575,-0.343874509,0.00359307675,0.00863773181,-0.0074434525,12.8588899,-0.0795028154,0.000592567472,0,0,0,12.8591356,0,0
12.38,12.4,-0.0130518624,0.00285822797,0.00858083727,0.146289401,-0.0022765618,-9.76613946,158.575053,-0.390482433,-0.343853117,0.00334576256,0.00868488771,-0.00727809477,12.8601229,-0.0789887956,0.00150683895,0,0,0,12.8603656,0,0
12.4,12.42,-0.0139646045,0.00366384947,0.00925255267,0.147272776,-0.00130593638,-9.77690327,158.832268,-0.392057368,-0.343815815,0.00307656922,0.00874980224,-0.00709958866,12.8613607,-0.0785108657,0.00218425724,0,0,0,12.8616005,0,0
12.42,12.44,-0.0145713119,0.00431847493,0.00994148248,0.148226578,-0.000391287857,-9.78747624,159.089507,-0.39362312,-0.343767287,0.00279245025,0.00882929983,-0.0069074217,12.8625997,-0.0780708158,0.00263075436,0,0,0,12.8628369,0,0
12.44,12.46,-0.0149430092,0.00483952074,0.0105948608,0.146132889,0.000983748752,-9.79764196,159.346771,-0.395180372,-0.34371205,0.00249878662,0.00892054406,-0.00670160698,12.8637768,-0.0776518785,0.0028573107,0,0,0,12.8640115,0,0
12.46,12.48,-0.0151424818,0.00524443332,0.0111170289,0.147013545,0.00387895141,-9.80727587,159.604058,-0.396729055,-0.343654378,0.00219965304,0.00902105249,-0.00648406882,12.8649502,-0.0772161623,0.00287637147,0,0,0,12.8651822,0,0
12.48,12.5,-0.0152297567,0.00554996842,0.0115485627,0.147792537,0.00594569045,-9.81632755,159.861369,-0.398269054,-0.343598287,0.00189784168,0.00912868417,-0.00625706571,12.8661162,-0.0767865376,0.00270165736,0,0,0,12.8663456,0,0
12.5,12.52,-0.0152445064,0.0057717471,0.0119172871,0.148496296,0.00742551768,-9.82473323,160.118703,-0.399800657,-0.343547505,0.00159516109,0.00924161868,-0.00602211379,12.8672722,-0.076378316,0.00234804001,0,0,0,12.8674991,0,0
12.52,12.54,-0.0152127569,0.00592403947,0.0122383125,0.149121836,0.00858036697,-9.83245696,160.37606,-0.401324383,-0.343505455,0.00129277617,0.0093583324,-0.00578030929,12.8684161,-0.0759998369,0.00183095819,0,0,0,12.8686407,0,0
12.54,12.56,-0.0151517849,0.0060196727,0.0125197559,0.149668699,0.00955848667,-9.8394853,160.63344,-0.402840877,-0.343475252,0.000991426715,0.00947757131,-0.00553252083,12.8695459,-0.075655496,0.00116594679,0,0,0,12.8697683,0,0
12.56,12.58,-0.0150731873,0.00607001749,0.0127659254,0.150138317,0.0104435592,-9.84582284,160.890842,-0.404350845,-0.343459702,0.000691568409,0.00959832227,-0.00527949497,12.8706598,-0.075347466,0.00036826886,0,0,0,12.8708803,0,0
12.58,12.6,-0.0149848148,0.00608499878,0.0129790868,0.147555232,0.0112821486,-9.85144581,161.148265,-0.405855021,-0.343461296,0.000393465158,0.0097197843,-0.00502191347,12.8716967,-0.0750763704,-0.000545948181,0,0,0,12.8719157,0,0
12.6,12.62,-0.0148920267,0.005789998,0.0131604518,0.147885944,0.0121007676,-9.8547424,161.405709,-0.40735415,-0.343482333,9.7250265e-05,0.00983996427,-0.00476042389,12.8727156,-0.0748427769,-0.0015848431,0,0,0,12.8729333,0,0
12.62,12.64,-0.0147959003,0.00461809181,0.0132733931,0.147957817,0.0134136271,-9.85630787,161.663174,-0.408848897,-0.343525649,-0.00019702158,0.00994502114,-0.0044958324,12.8737148,-0.0746292426,-0.00276131355,0,0,0,12.8739314,0,0
12.64,12.66,-0.0147015997,0.00303655181,0.0132345098,0.147731369,0.0162722627,-9.85639439,161.920658,-0.410339165,-0.343593101,-0.0004893277,0.010021989,-0.00423056617,12.8746943,-0.0743968483,-0.00398426915,0,0,0,12.8749099,0,0
12.66,12.68,-0.0146238535,0.00134782566,0.0130937916,0.147227312,0.0183137362,-9.8544572,162.178161,-0.411824792,-0.343684827,-0.000779901429,0.0100659862,-0.00396716781,12.8756554,-0.0741683705,-0.00517794102,0,0,0,12.87587,0,0
12.68,12.7,-0.0145676899,-0.000285612388,0.0128861502,0.146488508,0.0197693394,-9.85059306,162.435684,-0.413306027,-0.34379964,-0.0010691615,0.0100766552,-0.00370727623,12.8766001,-0.0739593472,-0.00628490993,0,0,0,12.8768141,0,0
12.7,12.72,-0.0145331246,-0.00178115208,0.0126320447,0.145564996,0.0208927457,-9.84509372,162.693225,-0.414783353,-0.343935363,-0.00135756443,0.0100560181,-0.00345199183,12.8775315,-0.0737786006,-0.00726296832,0,0,0,12.8777449,0,0
12.72,12.74,-0.0145181499,-0.00310171697,0.0123436582,0.144506635,0.0218258386,-9.83832264,162.950785,-0.416257392,-0.344089101,-0.00164553916,0.0100072531,-0.00320209926,12.8784524,-0.0736312068,-0.00808253017,0,0,0,12.8786655,0,0
12.74,12.76,-0.0145201838,-0.00423606681,0.0120284207,0.143359193,0.0226476824,-9.83064913,163.208363,-0.417728843,-0.344257478,-0.00193346392,0.00993399795,-0.00295819469,12.8793663,-0.0735201665,-0.00872443479,0,0,0,12.8795791,0,0
12.76,12.78,-0.0145367066,-0.00518744665,0.0116910252,0.139205706,0.0234017006,-9.82237315,163.465959,-0.419198452,-0.344436811,-0.00222166268,0.0098399569,-0.00272075864,12.880217,-0.0734471753,-0.00917663696,0,0,0,12.8804297,0,0
12.78,12.8,-0.0145630373,-0.0059669983,0.011297104,0.138026141,0.0246135864,-9.81380013,163.723572,-0.42066691,-0.344623253,-0.00251039819,0.00972868159,-0.00249037851,12.8810677,-0.0733963189,-0.00943534893,0,0,0,12.8812803,0,0
12.8,12.82,-0.0146000904,-0.00658981488,0.0107648088,0.136823887,0.0273406579,-9.80522492,163.981202,-0.422134172,-0.344812948,-0.00279985979,0.00960345188,-0.00226923956,12.8819207,-0.0733298671,-0.00950260105,0,0,0,12.8821329,0,0
12.82,12.84,-0.0146593591,-0.007072672,0.0101454837,0.135656874,0.0292210781,-9.79684855,164.238849,-0.423600155,-0.345002121,-0.0030904135,0.0094672242,-0.00205962134,12.8827788,-0.0732718354,-0.00938450348,0,0,0,12.8829906,0,0
12.84,12.86,-0.0147433927,-0.00743268126,0.0094751167,0.134540378,0.0304887709,-9.78882893,164.496513,-0.42506521,-0.345187154,-0.00338255154,0.00932261549,-0.00186287676,12.8836444,-0.0732389802,-0.00909035238,0,0,0,12.8838557,0,0
12.86,12.88,-0.0148503174,-0.00768647809,0.00877502723,0.133485147,0.0313994998,-9.78128409,164.754195,-0.426529948,-0.345364638,-0.00367675977,0.00917190506,-0.00167979928,12.8845197,-0.0732413217,-0.00863174171,0,0,0,12.8847308,0,0
12.88,12.9,-0.0149766872,-0.00784974913,0.00805809265,0.132498221,0.0320968356,-9.77429725,165.011894,-0.427995138,-0.345531414,-0.00397346368,0.00901704902,-0.00151084822,12.885407,-0.0732851099,-0.00802180859,0,0,0,12.8856179,0,0
12.9,12.92,-0.0151188228,-0.00793696977,0.00733230476,0.131583556,0.0326613358,-9.76792206,165.269611,-0.429461655,-0.345684595,-0.00427301358,0.00885970198,-0.00135627875,12.8863078,-0.0733744898,-0.0072746079,0,0,0,12.8865187,0,0
12.92,12.94,-0.0152733772,-0.00796127453,0.00660280691,0.130742581,0.0331382246,-9.76218743,165.527346,-0.430930442,-0.34582158,-0.00457568739,0.00870124258,-0.00121621725,12.8872238,-0.0735124322,-0.00640460168,0,0,0,12.887435,0,0
12.94,12.96,-0.0154375197,-0.0079344134,0.00587306441,0.129974701,0.0335529574,-9.75710213,165.7851,-0.432402492,-0.345940057,-0.00488170009,0.00854280078,-0.00109070537,12.8881562,-0.0737012549,-0.00542624982,0,0,0,12.8883681,0,0
12.96,12.98,-0.015608945,-0.00786676432,0.0051455395,0.129277743,0.0339199629,-9.75265877,166.042873,-0.433878844,-0.346038002,-0.00519121476,0.00838528547,-0.000979726205,12.8891062,-0.0739429102,-0.00435368911,0,0,0,12.889319,0,0
12.98,13,-0.0157858108,-0.00776738285,0.0044220824,0.128648345,0.0342475444,-9.74883746,166.300664,-0.435360572,-0.346113667,-0.00550435269,0.00822941142,-0.000883219953,12.8900747,-0.0742391449,-0.00320048874,0,0,0,12.8902889,0,0
13,13.02,-0.0152574464,-0.00764406158,0.00369900754,0.128083462,0.035107815,-9.74564428,166.558476,-0.436848716,-0.34616557,-0.00581770701,0.00807572494,-0.000801107737,12.8910624,-0.0745773234,-0.00197955725,0,0,0,12.8912783,0,0
13.02,13.04,-0.0128479287,-0.00750337038,0.0029050512,0.127577248,0.0367191806,-9.74303833,166.816307,-0.438343706,-0.34619248,-0.00609977056,0.00792462391,-0.000733967172,12.8920699,-0.074924847,-0.00070317255,0,0,0,12.8922877,0,0
13.04,13.06,-0.00997147767,-0.00735099168,0.00197795538,0.127122,0.0369488676,-9.74092241,167.074159,-0.439845849,-0.346193403,-0.00632744536,0.00777637276,-0.000683975767,12.8930977,-0.0752938125,0.000617377209,0,0,0,12.8933176,0,0
13.06,13.08,-0.00733877745,-0.00719177145,0.000914322617,0.126716047,0.0364986397,-9.73927801,167.332031,-0.441355624,-0.34616756,-0.00649953957,0.00763112698,-0.000653905404,12.8941461,-0.0756880475,0.00197170061,0,0,0,12.8943684,0,0
13.08,13.1,-0.00520119879,-0.00702967918,-0.000264082214,0.126355308,0.0358022989,-9.73807029,167.589925,-0.442873531,-0.346114372,-0.00662394676,0.00748895715,-0.000646301521,12.8952152,-0.0761065534,0.00335043766,0,0,0,12.8954402,0,0
13.1,13.12,-0.0035947489,-0.00686785205,-0.0015279913,0.126034664,0.0350533601,-9.73725643,167.84784,-0.444400032,-0.346033435,-0.00671115431,0.00734986865,-0.000663177553,12.8963051,-0.0765470402,0.00474530255,0,0,0,12.8965332,0,0
13.12,13.14,-0.00246489193,-0.00670870264,-0.00284865048,0.122815008,0.0343252087,-9.73674994,168.105776,-0.445935544,-0.345924491,-0.00677132199,0.00721381758,-0.000705956287,12.8973572,-0.0770074404,0.00615031252,0,0,0,12.8975886,0,0
13.14,13.16,-0.00172789283,-0.00655404236,-0.0042009775,0.122593317,0.0336342961,-9.73651232,168.363734,-0.447480454,-0.345787395,-0.00681315779,0.0070807231,-0.000775517509,12.8984308,-0.0774865984,0.00755947707,0,0,0,12.8986658,0,0
13.16,13.18,-0.00129901225,-0.00640513166,-0.00556437603,0.122367016,0.0329730836,-9.73654507,168.621714,-0.449035131,-0.345622121,-0.00684365391,0.00695047784,-0.000872282598,12.8995252,-0.0779842581,0.00896729915,0,0,0,12.899764,0,0
13.18,13.2,-0.00110387838,-0.00626277494,-0.00692250058,0.122161935,0.032325702,-9.73680781,168.879715,-0.450599951,-0.345428743,-0.00686819969,0.00682295682,-0.000996303287,12.9006401,-0.078501002,0.0103691397,0,0,0,12.9008831,0,0
13.2,13.22,-0.00108419096,-0.00612740875,-0.00822504763,0.121976761,0.031173609,-9.73726426,169.13774,-0.452175391,-0.345207421,-0.00689084249,0.00669802603,-0.00114715983,12.9017754,-0.0790554922,0.0117612426,0,0,0,12.9020229,0,0
13.22,13.24,-0.00118953924,-0.00599917992,-0.00937795113,0.121808937,0.0284548356,-9.73788272,169.395787,-0.453762721,-0.344958378,-0.00691458323,0.00657555844,-0.00132255548,12.9029307,-0.0796882779,0.0131406703,0,0,0,12.9031835,0,0
13.24,13.26,-0.00137052369,-0.00587801138,-0.0104236229,0.121647452,0.0265336608,-9.73863478,169.653857,-0.455363307,-0.344681897,-0.00694137385,0.00645542817,-0.00151989133,12.9041058,-0.0803781671,0.0145046516,0,0,0,12.9043643,0,0
13.26,13.28,-0.00159610771,-0.00576367704,-0.0113911775,0.118578357,0.0251717176,-9.73945405,169.91195,-0.456978139,-0.3443783,-0.00697237541,0.00633750691,-0.00173733943,12.9052421,-0.0811113142,0.0158521735,0,0,0,12.9055067,0,0
13.28,13.3,-0.00184948398,-0.00565586746,-0.0122589548,0.118462134,0.0236065501,-9.74032474,170.170067,-0.458608089,-0.344047929,-0.00700827131,0.00622166965,-0.00197332914,12.906398,-0.0818983427,0.0171819452,0,0,0,12.9066693,0,0
13.3,13.32,-0.00211571835,-0.00555417699,-0.0129512489,0.118321971,0.0206442119,-9.74127209,170.428206,-0.4602547,-0.343691149,-0.00704947535,0.00610780824,-0.00222487528,12.9075728,-0.0827750416,0.0184927532,0,0,0,12.9078514,0,0
13.32,13.34,-0.0023739804,-0.00545813245,-0.0135225872,0.118180485,0.0185799281,-9.74227901,170.68637,-0.461919532,-0.343308354,-0.00709599452,0.00599582343,-0.00248899105,12.9087659,-0.0837171967,0.0197833115,0,0,0,12.9090525,0,0
13.34,13.36,-0.00261543823,-0.00536721706,-0.0140102159,0.118037527,0.0171377098,-9.7433309,170.944557,-0.463603721,-0.342899958,-0.00714755195,0.00588561923,-0.00276366051,12.909977,-0.0847089784,0.0210526815,0,0,0,12.9102721,0,0
